time,accx,accy,accz,pitch,roll,yaw
11.62,0.0017330646514892578,0.0029003024101257324,0.001090407371520996,0.5829357140713934,-0.7597428094307078,-0.8869295752439154
11.64,0.003394484519958496,0.0029832124710083008,0.0009309053421020508,0.5829801433461159,-0.760095427288418,-0.8868697435975451
11.66,0.0016184449195861816,0.003446817398071289,0.001703023910522461,0.5830236756669572,-0.7603145871041729,-0.8868913861678932
11.68,0.002238035202026367,0.00233614444732666,0.003047466278076172,0.5829727552421556,-0.7603735118840199,-0.8870452430121217
11.7,0.003064453601837158,0.0009722113609313965,0.002070605754852295,0.5829108014662888,-0.7603639806149566,-0.8872319025757959
11.72,0.0030646920204162598,0.0025056004524230957,0.0006381869316101074,0.5828284610531576,-0.760338062384576,-0.8874855861473128
11.74,0.0016970634460449219,0.0016652941703796387,0.003285527229309082,0.5827723659217562,-0.7603373900654651,-0.8877403001743889
11.76,0.0029206275939941406,0.002864241600036621,0.004170894622802734,0.5827280473822272,-0.7603143756723179,-0.8879892014314524
11.78,0.002415776252746582,0.002727985382080078,0.0030404329299926758,0.582747591643207,-0.7602235337982619,-0.8883133862286867
11.8,0.0018644928932189941,0.0022760629653930664,0.003622293472290039,0.5826449155522017,-0.760105504515873,-0.888499072405234
11.82,0.0033275485038757324,0.0024593472480773926,0.0010151863098144531,0.5826816162854187,-0.7600498738993818,-0.8883523726221371
11.84,0.0025677084922790527,0.0015497207641601562,0.0006911754608154297,0.5827618722522452,-0.7600800778745013,-0.8881392324711928
11.86,0.0027855634689331055,0.003896474838256836,0.003437638282775879,0.5828129755189134,-0.7600182286148511,-0.8880424070942624
11.88,0.0019712448120117188,0.0024602413177490234,0.0019258856773376465,0.5828838272154003,-0.7601037708014093,-0.887888651608462
11.9,0.0009982585906982422,0.0030016303062438965,0.0035352706909179688,0.5829291003429214,-0.7601128536255115,-0.8877715739191046
11.92,0.001277327537536621,0.002180337905883789,0.002446770668029785,0.5829323375552812,-0.7601726127971374,-0.8876077367148478
11.94,0.002375364303588867,0.0019111037254333496,0.0021851658821105957,0.5829388398393073,-0.7602513703501017,-0.887359618486312
11.96,0.0008135437965393066,0.0028128623962402344,0.0023720860481262207,0.5829406466276056,-0.7602435888234028,-0.8870807651944219
11.98,0.004162430763244629,0.003269195556640625,0.0012886524200439453,0.583012022447792,-0.7603002720383535,-0.8866826256663216
12,0.0026139020919799805,0.0013447999954223633,0.0008757114410400391,0.5830647160430472,-0.7603714993743315,-0.8862959167714255
12.02,0.0011052489280700684,0.002242565155029297,0.003199458122253418,0.5831166156504207,-0.7604073155507117,-0.8860963012188731
12.04,0.0023884177207946777,0.003396928310394287,0.0016203522682189941,0.5831467834804208,-0.7604790611731773,-0.8859644278716012
12.06,-0.0006273388862609863,0.0022841691970825195,0.002911210060119629,0.5831298166364314,-0.7605279353157399,-0.8860560364425675
12.08,-0.0007425546646118164,0.0032089948654174805,0.0034347176551818848,0.5831227195934803,-0.760736793404828,-0.886384450335356
12.1,0.0009367465972900391,0.0033513307571411133,0.004107952117919922,0.5830372145866474,-0.7611639126049482,-0.8868198277607346
12.12,0.002266228199005127,0.0013198256492614746,0.0029618144035339355,0.5829250890928234,-0.7613239795988698,-0.8874590042854493
12.14,0.0032266974449157715,0.0024653077125549316,0.0027655959129333496,0.5828532668963201,-0.76155531293643,-0.8879813074028583
12.16,0.009273707866668701,0.0025243163108825684,0.0055869221687316895,0.5826863645006792,-0.7613820868412605,-0.8883178063577577
12.18,0.007074952125549316,0.0012129545211791992,0.0012450218200683594,0.5825960684333964,-0.7612472527409395,-0.8882799145928669
12.2,0.004425644874572754,0.0010605454444885254,0.0009202957153320312,0.5826328457871307,-0.7612292900041647,-0.8879398788200417
12.22,0.0028844475746154785,0.0008113384246826172,0.0017897486686706543,0.5827729181292958,-0.761291861147091,-0.8873210153849745
12.24,0.002709031105041504,0.0031137466430664062,0.0025659799575805664,0.5830085849482342,-0.7615032161235907,-0.8865198903079488
12.26,0.0027564167976379395,0.0030205249786376953,0.00250244140625,0.583207647035791,-0.7615552479837282,-0.8857542847098897
12.28,0.002385437488555908,0.0011415481567382812,0.0013042092323303223,0.5834427497477663,-0.7616448230769377,-0.8849394251921963
12.3,-0.0007579326629638672,0.0028308629989624023,0.001599729061126709,0.5836385740893909,-0.7618438787471676,-0.8841588978016273
12.32,0.001969635486602783,0.0038794279098510742,0.003538191318511963,0.5836517156765356,-0.7620986849515096,-0.883677312773145
12.34,0.000493168830871582,0.004624128341674805,0.0040013790130615234,0.5836847511853538,-0.7622518675970662,-0.8835140009900218
12.36,-0.0015804171562194824,0.0028127431869506836,0.0030630826950073242,0.583635183361704,-0.7622991577654568,-0.8836472159596352
12.38,-0.0007105469703674316,0.0036110877990722656,0.0036802291870117188,0.5835679004789047,-0.7623074479059134,-0.8841159065024203
12.4,0.00013244152069091797,0.0018074512481689453,0.003797471523284912,0.5835093201116727,-0.7622768208395974,-0.8848293353470071
12.42,0.000617682933807373,0.0025977492332458496,0.0033987760543823242,0.5833226431011479,-0.7623563483630735,-0.8856321351708111
12.44,0.0036677122116088867,0.0006718039512634277,0.003123641014099121,0.5831724332051611,-0.7624610429478547,-0.8863158429488509
12.46,0.004228651523590088,0.0011579394340515137,0.0027111172676086426,0.5830419299481245,-0.7624991158322184,-0.8867298834284387
12.48,0.003936350345611572,0.0009756684303283691,0.0022640228271484375,0.582951556586007,-0.762463624174171,-0.886847156659417
12.5,0.005293548107147217,-0.0009306669235229492,0.0022280216217041016,0.582916121913927,-0.7623388105409794,-0.8867336058465365
12.52,0.0029911398887634277,0.0023515820503234863,0.0016615986824035645,0.5829912033737328,-0.762237191924132,-0.8864368483618635
12.54,0.0019630789756774902,0.0027312636375427246,0.002560853958129883,0.5831536078882784,-0.7621531784897659,-0.8860276049901368
12.56,0.0006798505783081055,0.0020682811737060547,0.0012012124061584473,0.5833098770687122,-0.7620215514403629,-0.8856750581682601
12.58,0.0011500120162963867,0.003018200397491455,0.002961575984954834,0.5834608013956473,-0.7619603059114546,-0.88534887964702
12.6,0.0001087188720703125,0.0029953718185424805,0.0034186244010925293,0.5835065344925537,-0.7619829249441328,-0.8851283075514038
12.62,0.001975119113922119,0.00330507755279541,0.0036492347717285156,0.5834389430523057,-0.761973763232571,-0.8851523163127719
12.64,0.0013984441757202148,0.0026226043701171875,0.002270519733428955,0.583443900331388,-0.7620326154041992,-0.8853136241740583
12.66,0.0023627281188964844,0.0025066137313842773,0.0023517608642578125,0.583414616112793,-0.7620442885567814,-0.8855732236709686
12.68,0.002887547016143799,0.0021784305572509766,0.0024080872535705566,0.5833139409254479,-0.7620161643257614,-0.8858867892657721
12.7,0.0005425214767456055,0.0025803446769714355,0.00350874662399292,0.5832651881307286,-0.761993439162899,-0.886207662291934
12.72,0.0028185248374938965,0.00025385618209838867,0.0022881627082824707,0.5832018042226429,-0.7619575957866407,-0.8864720152368516
12.74,0.002259552478790283,0.0035355091094970703,0.0009509921073913574,0.5831665055793795,-0.7619194371653728,-0.8866186248212856
12.76,0.0028205513954162598,0.0025141239166259766,0.002354562282562256,0.5831676327117562,-0.7618131558955333,-0.8866684686502162
12.78,0.0017734169960021973,0.0019614696502685547,0.0017888545989990234,0.5831637109739761,-0.7618706394560861,-0.8866453042178469
12.8,-0.0007445216178894043,0.003560483455657959,0.0021650195121765137,0.5832512102783731,-0.7619253479984284,-0.8867353101087853
12.82,0.00015795230865478516,0.0035991668701171875,0.002810955047607422,0.5832244732353306,-0.7619880152141398,-0.8869724024781285
12.84,-0.00011438131332397461,0.0023000240325927734,0.0030291080474853516,0.5832402001162641,-0.7621281241635269,-0.8873088730179947
12.86,0.0041585564613342285,0.001781165599822998,0.0019474625587463379,0.5832036613302354,-0.7622827506305472,-0.8876076348123044
12.88,0.0026938319206237793,0.001637876033782959,0.0012870430946350098,0.5831416199671685,-0.7625977466300692,-0.8877489292614371
12.9,0.002835988998413086,0.0016021728515625,0.0038129091262817383,0.5830805769179322,-0.7630224622159694,-0.8878235696975012
12.92,0.0021730661392211914,-0.0002987384796142578,0.001049816608428955,0.5831247738534928,-0.7634438014572077,-0.8877368785737053
12.94,0.004813015460968018,0.0027727484703063965,-0.0005706548690795898,0.583166730977885,-0.7634200211813369,-0.8876954278464733
12.96,0.0018146634101867676,0.0014801025390625,0.000977933406829834,0.5832816264069716,-0.7633279558237213,-0.887587987507125
12.98,0.0032761693000793457,0.0025786757469177246,0.0037238001823425293,0.5832815555180194,-0.7631705873059155,-0.8874501090735346
13,0.001849055290222168,0.001896977424621582,0.0027344226837158203,0.583360611308821,-0.7629795340489091,-0.8873285389062342
13.02,0.0032036900520324707,0.0022150278091430664,0.0030035972595214844,0.5833577910253477,-0.7625675522128463,-0.8873586835183277
13.04,0.0019080638885498047,0.0026110410690307617,0.004427850246429443,0.5833385706990416,-0.7622543110440271,-0.8873130944264248
13.06,0.002087116241455078,0.0018677711486816406,0.0027694106101989746,0.583289029534873,-0.7619889528471807,-0.8872977163196755
13.08,0.0018395185470581055,0.0029915571212768555,0.0018406510353088379,0.5832460409348211,-0.7618297751507387,-0.8872772080941896
13.1,0.0035001635551452637,0.0021954774856567383,0.0021047592163085938,0.5832795271090764,-0.7617455379215117,-0.8873176914051637
13.12,0.0036629438400268555,0.0021035075187683105,0.0009517073631286621,0.5832972328352369,-0.7617482839510321,-0.8872933546319407
13.14,-0.0003528594970703125,0.0015792250633239746,0.0035567283630371094,0.5833090325471505,-0.7618269732244024,-0.8872117423956625
13.16,0.0007461905479431152,0.0020881295204162598,0.0021741390228271484,0.5832423174299561,-0.7618361626145446,-0.8872016731823652
13.18,0.003116786479949951,0.0017922520637512207,0.0032584071159362793,0.5832533838174908,-0.7618269721198878,-0.8872081075014503
13.2,0.0024833083152770996,0.0033617615699768066,0.00042700767517089844,0.5832325203745166,-0.7617502855636211,-0.8872867918014729
13.22,0.000986933708190918,0.0014979839324951172,0.0020799636840820312,0.5832116723601664,-0.7618619765445146,-0.8872951777349936
13.24,0.0014483928680419922,0.0029695630073547363,0.002469182014465332,0.5832014510969783,-0.7619879127812281,-0.8872744395017963
13.26,0.003702998161315918,0.001716315746307373,0.0017574429512023926,0.5831989628259797,-0.7619802465532389,-0.8873470794571261
13.28,7.12275505065918e-05,0.0039011240005493164,0.0028502941131591797,0.5831474977692126,-0.7619728307033299,-0.8874961295613027
13.3,0.003029763698577881,0.0022399425506591797,0.003340423107147217,0.583149935491256,-0.7620474007339368,-0.887607327334688
13.32,0.0036650896072387695,0.0028914213180541992,0.0024816393852233887,0.5831261060441065,-0.7621242982008212,-0.8876589335991473
13.34,0.0023276805877685547,0.0005183219909667969,0.0028957128524780273,0.5831530779654934,-0.7620490590361244,-0.8876712798847556
13.36,0.0034702420234680176,0.0015822052955627441,0.0006127357482910156,0.5830749485213378,-0.7621989456130907,-0.8875097816902965
13.38,0.0035750865936279297,0.0018895268440246582,-0.0005686283111572266,0.5831505253527471,-0.7623696482597081,-0.8873374644418637
13.4,0.00422978401184082,0.0022847652435302734,0.0014654994010925293,0.5831670345236288,-0.762402988293905,-0.8872467848934485
13.42,0.0019768476486206055,0.0019571781158447266,0.005205929279327393,0.5831767737029367,-0.7623926777382313,-0.8871957700081127
13.44,0.002069413661956787,0.002752542495727539,0.002505779266357422,0.5832156720689976,-0.7624441698191315,-0.8870853156421117
13.46,0.003798067569732666,0.0033320188522338867,0.0026198625564575195,0.5832151885627251,-0.7622994953383159,-0.8870411998434651
13.48,0.0019834041595458984,0.0036029815673828125,0.003120899200439453,0.583174311438861,-0.762199714826974,-0.8870271463467956
13.5,0.0007086992263793945,0.0022755861282348633,0.003922104835510254,0.5831743945923956,-0.7621862417059341,-0.8869973613594041
13.52,0.0014854669570922852,0.0034178495407104492,0.0027809739112854004,0.5831535452626776,-0.7622213219971429,-0.8869328537264481
13.54,0.0035704374313354492,0.0017175078392028809,0.0016791224479675293,0.5831638453305957,-0.7621934007510179,-0.886908204745616
13.56,0.0007604360580444336,0.0020314455032348633,0.0014293193817138672,0.5831195756297164,-0.7623131903741827,-0.8868265804326947
13.58,0.0034976601600646973,0.004150569438934326,0.0007720589637756348,0.5831173237216456,-0.7624226002212178,-0.8867899463239742
13.6,0.000629723072052002,0.005154132843017578,0.0047522783279418945,0.5830583063467086,-0.7623614491893672,-0.8869413499226508
13.62,-1.811981201171875e-05,0.002161741256713867,0.004284083843231201,0.5830380414892995,-0.7622612708894878,-0.8871682459326545
13.64,0.003919541835784912,0.0017840862274169922,0.0033999085426330566,0.5828963609014971,-0.7621988456184184,-0.8872888981919373
13.66,0.0008469223976135254,0.0008604526519775391,0.0022025704383850098,0.5828135373755452,-0.7621626747099367,-0.8873011231445053
13.68,0.0028130412101745605,0.0027994513511657715,0.00048148632049560547,0.5827783614114517,-0.7623136878854989,-0.8871643539591941
13.7,0.0030058622360229492,0.003005683422088623,0.002588212490081787,0.5827511294083632,-0.7624895640857765,-0.8869075586106134
13.72,0.003412485122680664,0.002711474895477295,0.0009879469871520996,0.5828557350746227,-0.7625464108279407,-0.8867531005931759
13.74,0.001630544662475586,0.0016502141952514648,0.0013924241065979004,0.5828822648594746,-0.7625939919526226,-0.8866469349930151
13.76,-0.0005934238433837891,0.002732574939727783,0.006079912185668945,0.5827896418713758,-0.7624409206404303,-0.8866677870266905
13.78,0.00015228986740112305,0.0030829310417175293,0.00432276725769043,0.5827524324106512,-0.7623384542654091,-0.8867152897769889
13.8,0.0007066726684570312,0.0029894113540649414,0.0030292272567749023,0.5826403740264706,-0.7622510464474371,-0.8867665766795211
13.82,0.002482116222381592,0.003351867198944092,0.0018180012702941895,0.5825992102555981,-0.7621836819928388,-0.8867605137196626
13.84,0.0010052919387817383,0.002165496349334717,0.0030307769775390625,0.5825307365833183,-0.7622975966243433,-0.8866537616408249
13.86,0.0014330744743347168,0.002355217933654785,0.0006154775619506836,0.5824838755320761,-0.7624962947060292,-0.8865133627255939
13.88,0.0021817684173583984,0.0029721856117248535,0.0014656782150268555,0.5824917934248516,-0.7626041087744212,-0.8864353000136979
13.9,0.0028110742568969727,0.001914680004119873,0.0008850693702697754,0.5824862739964858,-0.7625562536714305,-0.8865199668604576
13.92,0.0031605958938598633,0.0034398436546325684,0.0021051764488220215,0.5824671211592695,-0.7624912292217817,-0.8865699753366085
13.94,0.00018781423568725586,0.002905726432800293,0.0052405595779418945,0.5824304453250732,-0.762371507123884,-0.8866645303575053
13.96,0.00027489662170410156,0.0008970499038696289,0.0043485164642333984,0.5823640170134771,-0.7622971426992119,-0.8867620490719803
13.98,0.0013862848281860352,0.0037247538566589355,0.003916621208190918,0.5823515290834647,-0.7622346150300047,-0.8868695659751987
14,0.001078486442565918,0.002900362014770508,0.003959774971008301,0.5822778722753821,-0.7621839847042131,-0.8870123760179491
14.02,0.0032625198364257812,0.0018836259841918945,0.00270158052444458,0.5822480524846398,-0.7622695792937895,-0.8870713592968077
14.04,0.0035437345504760742,0.002749800682067871,0.0003376007080078125,0.5822437992141767,-0.7624293515336257,-0.8870203597884259
14.06,0.002851545810699463,0.0012270212173461914,-0.0010734796524047852,0.5822657273370001,-0.7625855116294443,-0.8868912683966066
14.08,0.0021473169326782227,0.001788020133972168,0.002094566822052002,0.5822980668856721,-0.7626526182007758,-0.886809402217869
14.1,0.0012952089309692383,0.002819836139678955,0.004977405071258545,0.5823093737429915,-0.7624614645759128,-0.8868858422514572
14.12,0.0015239119529724121,0.0006541609764099121,0.0031310319900512695,0.5822375927164668,-0.7620876979174894,-0.887044708110411
14.14,0.0002938508987426758,0.002408325672149658,0.0029172897338867188,0.5822003182517366,-0.7617961907155298,-0.8871678330046401
14.16,0.002209961414337158,0.00040400028228759766,0.0034290552139282227,0.5821573464297928,-0.7617585852145354,-0.887177745747605
14.18,0.003768324851989746,0.001963496208190918,1.1324882507324219e-05,0.5822888812827594,-0.7622232047545914,-0.8868862534442888
14.2,0.002140223979949951,0.0028365254402160645,0.001647651195526123,0.5823658214852276,-0.7624812399223483,-0.8867746588843547
14.22,0.00131303071975708,0.001928865909576416,0.004104971885681152,0.5824301322337209,-0.7625416580810501,-0.8868065375052834
14.24,0.0016753673553466797,0.0029014945030212402,0.003729403018951416,0.5824254310860464,-0.7624817194275015,-0.8869404463537623
14.26,0.0014742016792297363,0.001368105411529541,0.0027303695678710938,0.5824712359380166,-0.7623038850326619,-0.8871794062956647
14.28,0.0030565261840820312,0.002419710159301758,0.003479480743408203,0.5824332725169143,-0.7622218125642022,-0.8872590624225152
14.3,0.0036746859550476074,0.000666499137878418,0.0012343525886535645,0.5824899790736201,-0.762371446647363,-0.8871404847815955
14.32,0.0027427077293395996,0.001642763614654541,0.002705514430999756,0.5824894689458642,-0.7625460146475437,-0.8869898545322974
14.34,0.0027866363525390625,0.00276029109954834,0.0004761219024658203,0.5824573210143775,-0.7626238656015955,-0.8869019704228945
14.36,0.004469513893127441,0.0017859935760498047,0.0024222731590270996,0.5824783763289471,-0.7625685884096227,-0.886888338974285
14.38,-0.0009185075759887695,0.0023368000984191895,0.002446889877319336,0.5824618413185406,-0.762378523637124,-0.8869797512812709
14.4,0.0015061497688293457,0.0016270875930786133,0.0033689141273498535,0.5824707227605392,-0.7622553479315106,-0.8871077273059373
14.42,0.00023055076599121094,0.0033501386642456055,0.002857804298400879,0.5824693729460071,-0.7621636347375177,-0.8872429171801862
14.44,0.0035205483436584473,0.002666652202606201,0.0022619962692260742,0.5824548648078721,-0.7620690067449731,-0.8873179578635567
14.46,0.0030124783515930176,0.001903533935546875,0.004312634468078613,0.582418071020438,-0.7621899034152887,-0.8872802443065682
14.48,0.0025544166564941406,0.0013336539268493652,0.0012868046760559082,0.582448182348168,-0.7623093635072551,-0.8872050257150925
14.5,0.002492964267730713,0.002466738224029541,0.0009957551956176758,0.5824346711533317,-0.7624264866174528,-0.8871476886103977
14.52,0.0019987821578979492,0.002897799015045166,0.0028601884841918945,0.5824392868507472,-0.7624448249578042,-0.8871853792989363
14.54,0.0028942227363586426,0.0025734901428222656,0.0016203522682189941,0.5824895289135986,-0.762443241419944,-0.8871918632377983
14.56,0.002012968063354492,0.003186345100402832,0.00326383113861084,0.5825473217611691,-0.7623847499686383,-0.8872261349880537
14.58,0.0031096935272216797,0.002078235149383545,0.0013524293899536133,0.5825541480985392,-0.7623605922274397,-0.887169227369744
14.6,0.0020564794540405273,0.0034242868423461914,0.0027840137481689453,0.5825398575009851,-0.7624016097887578,-0.8870024588844817
14.62,0.002317965030670166,0.0021362900733947754,0.0013068914413452148,0.582550666424579,-0.7623360873757511,-0.8868868696843174
14.64,0.0028835535049438477,0.003976047039031982,0.0006219148635864258,0.5825062332357591,-0.7622844847570227,-0.8867823044178981
14.66,0.0033450722694396973,0.0032314062118530273,0.002609550952911377,0.5825099266563829,-0.7621162190032572,-0.8868069820197275
14.68,0.0010731220245361328,0.003088533878326416,0.000922083854675293,0.5825763254908202,-0.7620595595140287,-0.8868770766494986
14.7,0.003384113311767578,0.0016222000122070312,0.0020307302474975586,0.5825927961372932,-0.7620308273592992,-0.8869493103327968
14.72,0.003988504409790039,0.0029348134994506836,0.0021096467971801758,0.582556698915074,-0.7619983248964602,-0.8870324529615733
14.74,0.0009911060333251953,0.002463042736053467,0.0021004080772399902,0.5825398989949103,-0.7620524304594865,-0.8870990452859927
14.76,0.0001380443572998047,0.0036320090293884277,0.0018915534019470215,0.5825144765986776,-0.7621145826732906,-0.88729228361659
14.78,0.0018950104713439941,0.0011921525001525879,0.0032030344009399414,0.5825528749657541,-0.7621423820175683,-0.8876206333514972
14.8,0.0024517178535461426,0.002003908157348633,0.0034426450729370117,0.5826479423943205,-0.762163929512228,-0.8879875172184997
14.82,0.0024517178535461426,0.002003908157348633,0.0034426450729370117,0.5826479423943205,-0.762163929512228,-0.8879875172184997
14.84,0.0023440122604370117,0.0022314786911010742,0.003338038921356201,0.5825001275662359,-0.7624737473306483,-0.8884517165506345
14.86,0.0036940574645996094,0.0006852149963378906,-0.0005555152893066406,0.5826219272186925,-0.7627646009336971,-0.8883252924155188
14.88,0.004452168941497803,-0.0004898905754089355,0.0020295381546020508,0.5828045096183379,-0.7629980015836869,-0.8878472536536118
14.9,0.0023334622383117676,0.0007365942001342773,0.002148270606994629,0.583012403410247,-0.7633099915887311,-0.88707100851727
14.92,0.0033556222915649414,0.0025194287300109863,0.004793643951416016,0.5831923223026023,-0.7636256652224945,-0.8861296260170242
14.94,0.004290223121643066,0.0017978549003601074,0.0018669366836547852,0.5833881348125006,-0.7638821971882254,-0.8850523045989503
14.96,0.0020946860313415527,0.002702057361602783,0.0011647343635559082,0.5836487577165255,-0.764125896528754,-0.8839930560085895
14.98,0.001729428768157959,0.0031719207763671875,0.0020385384559631348,0.583809524494767,-0.7644573248018133,-0.8830863899955624
15,0.0006425380706787109,0.003908693790435791,0.004100620746612549,0.5837050457412906,-0.764816114131796,-0.8825862434729098
15.02,0.0008095502853393555,0.003888428211212158,0.0003548860549926758,0.5837173125311115,-0.7648731629159199,-0.8824684963345393
15.04,0.0020865201950073242,0.003990650177001953,0.005943894386291504,0.5836387456356944,-0.7648407306124705,-0.8826247455562558
15.06,-0.0015932917594909668,0.004633843898773193,0.0036016106605529785,0.583495155442325,-0.7648471186416663,-0.8830010950563408
15.08,7.224082946777344e-05,0.004619121551513672,0.005133926868438721,0.583349580810213,-0.7649360775306651,-0.8835984457390957
15.1,0.0014348030090332031,0.0035819411277770996,0.004104971885681152,0.5830942021625749,-0.7648325774515852,-0.8844851717455526
15.12,0.0013848543167114258,0.0018123388290405273,0.0049555301666259766,0.5828022380627836,-0.7645649455982392,-0.8856282155286048
15.14,0.0006015300750732422,0.0027588605880737305,0.009263038635253906,0.5822729648259726,-0.7639438373612025,-0.887139395868145
15.16,0.005341172218322754,0.00240248441696167,0.004946887493133545,0.5815723398436201,-0.7628104378364927,-0.8888750252666543
15.18,0.02021867036819458,0.007841408252716064,0.00746232271194458,0.5810145982745617,-0.763091928884975,-0.8893642680246595
15.2,-0.0037935972213745117,-0.006251275539398193,-0.013571739196777344,0.5813690998852157,-0.7642079129880498,-0.8887242314398885
15.22,0.004722476005554199,-0.0006003379821777344,-0.001689910888671875,0.5816126920610536,-0.7649461656418793,-0.8879344089905961
15.24,0.006062030792236328,0.0014147758483886719,-0.0006124973297119141,0.5819242969978498,-0.7651122199608612,-0.886833375314258
15.26,0.0033983588218688965,0.003498375415802002,0.0033228397369384766,0.5821170021810549,-0.7645867088966417,-0.8859601458151971
15.28,0.00041174888610839844,0.0022966861724853516,0.006803631782531738,0.5821397776511301,-0.7643041933132063,-0.8855811627099787
15.3,-0.004211246967315674,0.002649843692779541,0.0069463253021240234,0.5821972116203444,-0.7644929928257085,-0.8855152704043915
15.32,-0.0008397698402404785,0.0016372203826904297,0.001837611198425293,0.582281960803958,-0.7641656515127517,-0.8855054272687765
15.34,0.005747377872467041,0.0036922097206115723,0.00582432746887207,0.5822577274026114,-0.7634090204891811,-0.8854947143649827
15.36,-0.003240048885345459,0.004794657230377197,0.0069193243980407715,0.5822441142729609,-0.7628696483530821,-0.8857375092362398
15.38,-0.0019829869270324707,0.00538259744644165,0.005343616008758545,0.5821075242523666,-0.7623890643825869,-0.8863141453952333
15.4,0.0032367706298828125,0.004379332065582275,0.0013265609741210938,0.5818929549335369,-0.761776674576216,-0.886987939510589
15.42,0.0009194612503051758,0.0032535195350646973,-0.0004972219467163086,0.5817873830254139,-0.7613605286988575,-0.8876096081113392
15.44,0.0003986954689025879,0.001813054084777832,-0.0010325312614440918,0.581670372367654,-0.7618137984228959,-0.8879074397775044
15.46,0.0029181838035583496,0.0042552947998046875,-0.002566516399383545,0.5814888018993125,-0.7625612316978857,-0.8880973237358865
15.48,0.004590034484863281,0.002310514450073242,0.0001615285873413086,0.5814257442435383,-0.7632180113265152,-0.8882531983956883
15.5,0.004136800765991211,0.000590205192565918,0.0015377402305603027,0.5813574843724022,-0.7638143318714413,-0.8883696603329829
15.52,0.004491090774536133,-0.00045543909072875977,0.0011577010154724121,0.5813113645454768,-0.7643976327599055,-0.8881116132660444
15.54,0.0073097944259643555,-0.0001533031463623047,0.0007070302963256836,0.5812711552821545,-0.7644920638058124,-0.8874228900454779
15.56,0.00453495979309082,-0.0010704994201660156,0.0022661685943603516,0.5814152705562886,-0.7642830114485282,-0.8863732299514667
15.58,0.0015557408332824707,0.001981198787689209,0.003603518009185791,0.581597696619272,-0.7640881081583336,-0.8852857693747613
15.6,0.0004119873046875,0.001979231834411621,0.0051670074462890625,0.5817962769237317,-0.7638603873489305,-0.8845225268965123
15.62,0.002241849899291992,0.0051146745681762695,0.00532841682434082,0.581914704709304,-0.7635789072221347,-0.8842201849766422
15.64,-0.0031313300132751465,0.0035033226013183594,0.0014765262603759766,0.5820498726232632,-0.7637616809552762,-0.8841179023199256
15.66,-0.0005849599838256836,0.0060272216796875,0.0015850663185119629,0.5820389929754889,-0.7640301789633593,-0.8841532278133828
15.68,0.0002319812774658203,0.0019493699073791504,0.0007694363594055176,0.5820527175766101,-0.7645078353504068,-0.8840955996906172
15.7,0.0020052194595336914,0.0030989646911621094,0.0019341111183166504,0.5820406419934504,-0.7650878998060573,-0.883918340823946
15.72,0.002637028694152832,0.0013427734375,0.0009416937828063965,0.58207553943823,-0.765829554665797,-0.8836557382210123
15.74,0.0031562447547912598,0.0032833218574523926,-0.0014255642890930176,0.5820604663067569,-0.7665811989573776,-0.8835001337966251
15.76,0.0035208463668823242,0.0036927461624145508,0.00041562318801879883,0.5821487297021548,-0.7673195341620789,-0.8835391331156363
15.78,0.00019222497940063477,0.003672480583190918,0.0033156871795654297,0.5822523905886277,-0.7681942519951168,-0.8837417091706259
15.8,0.0034638643264770508,0.003340482711791992,0.008062601089477539,0.5822750721199644,-0.7687019691392077,-0.8842124078387152
15.82,0.003409266471862793,0.0014992952346801758,0.004019021987915039,0.5821898418704001,-0.768759989993674,-0.8848628178745406
15.84,0.005264341831207275,0.0007047057151794434,0.002979576587677002,0.5821154470849296,-0.7684984666124303,-0.8854673824108205
15.86,0.004580318927764893,0.0024666786193847656,0.003532707691192627,0.5819779059877432,-0.768059832424252,-0.8858392591099117
15.88,0.00437617301940918,0.0014404058456420898,0.004612445831298828,0.5819183844300316,-0.7675807233293752,-0.885996727894028
15.9,0.0021237730979919434,0.0018579363822937012,0.0016391277313232422,0.5818702807655382,-0.7669256957620412,-0.8860631511669381
15.92,0.0015183687210083008,0.0006625652313232422,0.004078865051269531,0.5818641016038969,-0.7661693008890986,-0.8860847098062904
15.94,0.0011039376258850098,0.0019562840461730957,0.002716064453125,0.5819149292430519,-0.7655893041907988,-0.8859696855421766
15.96,0.002310514450073242,0.0017973780632019043,0.0017591118812561035,0.5819985845433873,-0.7653400335576143,-0.8855796319220001
15.98,0.001668691635131836,0.0031127333641052246,0.0014102458953857422,0.5820754810832293,-0.7653364860366594,-0.8850715696191891
16,0.0010129809379577637,0.0023372769355773926,0.0013331174850463867,0.5822248367600473,-0.7657102194304394,-0.8845593834922499
16.02,0.00030857324600219727,0.0019066333770751953,0.0021206140518188477,0.582348651005425,-0.7662155227673193,-0.8841215362954651
16.04,0.001394808292388916,0.004584610462188721,0.0019003748893737793,0.5824491831658605,-0.7668166823404807,-0.8837971093419226
16.06,0.0012059211730957031,0.0027722716331481934,0.002606689929962158,0.5825264244130434,-0.7674144835698177,-0.8836398672396313
16.08,0.0026589632034301758,0.00402069091796875,0.002666294574737549,0.5825962446531192,-0.7679217274734967,-0.8836130271294704
16.1,0.003259003162384033,0.0038454532623291016,0.004609346389770508,0.5825508578870268,-0.7681805368028101,-0.8837958419086812
16.12,0.00253140926361084,0.0010073184967041016,0.003149271011352539,0.582422903118193,-0.7682595810895163,-0.8840812629135612
16.14,0.002504706382751465,0.00218355655670166,0.0012483596801757812,0.5823697077054985,-0.7682321010990102,-0.8843754823068027
16.16,0.003003358840942383,0.002307415008544922,0.0034229159355163574,0.5822440194227542,-0.7680677469342223,-0.8847079197769023
16.18,0.002481222152709961,0.0019469857215881348,0.0011453032493591309,0.5822143124332285,-0.7680686906599479,-0.884994690817139
16.2,0.0033271312713623047,0.002237856388092041,0.0018085837364196777,0.5822336679375921,-0.7679905339449911,-0.8852584521895422
16.22,0.0015705227851867676,0.001999974250793457,0.001325845718383789,0.5822046353571875,-0.767816696284798,-0.8854158564373352
16.24,0.004516243934631348,0.0024404525756835938,0.001128554344177246,0.5822022775667903,-0.767816445982047,-0.8854056193993355
16.26,0.002815067768096924,0.0006322264671325684,0.001589357852935791,0.5822296538352835,-0.7678977556520391,-0.8853194626794998
16.28,0.003940284252166748,0.002119779586791992,0.0022441744804382324,0.5822385065655066,-0.7679728840132863,-0.8852521126154409
16.3,0.0027156472206115723,0.0021888017654418945,0.0021219849586486816,0.5823028522392755,-0.7679818441751587,-0.8852155523236327
16.32,0.0010094642639160156,0.004119157791137695,0.0019439458847045898,0.582330485996143,-0.7679279523230997,-0.8852090018714551
16.34,0.0005553364753723145,0.0021452903747558594,0.002787470817565918,0.582378756886822,-0.7679138980721636,-0.8851492378943887
16.36,0.0015450119972229004,0.002392113208770752,0.002374410629272461,0.5824002222764184,-0.7678222551927915,-0.8850776052793977
16.38,0.002355813980102539,0.002765059471130371,0.005045115947723389,0.5823899720386743,-0.7675653885365088,-0.8850502618024476
16.4,0.0027997493743896484,0.0029754638671875,0.00393223762512207,0.5822399928658889,-0.767218651365133,-0.8850876465307242
16.42,-3.403425216674805e-05,0.001655876636505127,0.002672910690307617,0.5821581227153771,-0.7669201210499376,-0.8851754276243237
16.44,0.003497302532196045,0.0025802254676818848,0.004156529903411865,0.5820956160980627,-0.7665616667732481,-0.8852885911395076
16.46,0.0030233263969421387,0.0014704465866088867,0.004235267639160156,0.5820639577922482,-0.7662104333379143,-0.8853214119239726
16.48,0.003466367721557617,0.0014197826385498047,0.0010991096496582031,0.5820033181489574,-0.765818057990723,-0.8853325718094718
16.5,0.0012684464454650879,0.0009291768074035645,0.001950681209564209,0.5819640521052516,-0.7656654308846153,-0.885216904108947
16.52,0.002508997917175293,0.0032222867012023926,0.0016791224479675293,0.5819325317587882,-0.7656025325313969,-0.8850578902404628
16.54,0.003204941749572754,0.0009580254554748535,0.001386880874633789,0.5819985373310408,-0.7654822324021006,-0.8849641806462324
16.56,0.0031621456146240234,0.002151668071746826,0.0009183883666992188,0.5820209917667097,-0.7652481846840421,-0.8848652881118493
16.58,0.00040280818939208984,0.001766800880432129,0.0015816688537597656,0.5820717344380539,-0.7653857043630055,-0.8846750170178523
16.6,0.0016631484031677246,0.002981901168823242,0.002192974090576172,0.5820467086095922,-0.7656383305290771,-0.8845962262703961
16.62,-0.0005633831024169922,0.0020213723182678223,0.003374159336090088,0.5821024009475295,-0.765852981041683,-0.8846384018294342
16.64,0.00012630224227905273,0.0022632479667663574,0.005503535270690918,0.5820266855544692,-0.7657848494395771,-0.8849468571481551
16.66,0.0021542906761169434,0.002338111400604248,0.0037862658500671387,0.5818970447740353,-0.7656244237668722,-0.8853597607876754
16.68,0.004078269004821777,0.0028291940689086914,0.002597212791442871,0.5818090480090548,-0.7654191066241621,-0.8857366572980296
16.7,0.004816174507141113,0.0014477372169494629,0.002727508544921875,0.58170802108826,-0.7652631508580552,-0.8859097392392481
16.72,0.002213418483734131,0.0025856494903564453,0.0025412440299987793,0.5817184945859605,-0.765103259810783,-0.8859217066599124
16.74,0.0051100850105285645,0.0016335844993591309,0.004100799560546875,0.5817295492656575,-0.7648528573832171,-0.8859225186119677
16.76,0.00012862682342529297,0.0020521879196166992,0.0016120076179504395,0.5817558140689699,-0.7647057804318892,-0.8859095593762957
16.78,0.0029857754707336426,0.002450227737426758,0.0021729469299316406,0.5818486418804163,-0.7645428323064777,-0.8859586444702252
16.8,0.0017428398132324219,0.0019966959953308105,0.003056168556213379,0.5817988692475288,-0.7644745336969266,-0.8859689119179005
16.82,0.0019567012786865234,0.002545297145843506,0.0008770227432250977,0.581816354952324,-0.764536701716996,-0.8859296452512749
16.84,0.0028017759323120117,0.001449882984161377,0.002321898937225342,0.581820145379773,-0.7647005676706652,-0.8857786705874213
16.86,0.0033270716667175293,0.000880897045135498,0.0019438862800598145,0.5818331270356843,-0.7648967632798561,-0.8855783201962641
16.88,0.003712892532348633,0.0020805001258850098,0.0025916695594787598,0.5818625945774024,-0.7650491762982664,-0.8853775394562742
16.9,0.0007647275924682617,0.0018096566200256348,0.0026044845581054688,0.5818306951299731,-0.7650489615238486,-0.8852426371639761
16.92,0.0031055808067321777,0.002687513828277588,0.0031371712684631348,0.581822164058903,-0.7649779897561028,-0.8852279261654173
16.94,0.0020163655281066895,0.002319514751434326,0.0013300180435180664,0.581856600284847,-0.7649394293771956,-0.8852560636205403
16.96,0.003217637538909912,0.0029808878898620605,0.0024898648262023926,0.5818993758399155,-0.7648834911765794,-0.8853707717995353
16.98,0.002375483512878418,0.004220187664031982,0.0017125606536865234,0.5819033907421226,-0.7649319247502394,-0.885501121512474
17,0.0014511346817016602,0.0030227303504943848,0.002319514751434326,0.5818765066765932,-0.7648243353225552,-0.8857401886970022
17.02,0.003081381320953369,0.0011758804321289062,0.002758502960205078,0.5818209558837537,-0.764683902043405,-0.8860411055097088
17.04,0.0029196739196777344,0.0019783973693847656,0.0026276111602783203,0.5817587532340974,-0.7644778267360539,-0.8863174656456269
17.06,0.001488327980041504,0.003623783588409424,0.0030679702758789062,0.5815365903980297,-0.7643173000788059,-0.8866009930780016
17.08,0.001488327980041504,0.003623783588409424,0.0030679702758789062,0.5815365903980297,-0.7643173000788059,-0.8866009930780016
17.1,0.0028961896896362305,0.0016463994979858398,0.0018330812454223633,0.581653608146956,-0.764499071253842,-0.8864322524980102
17.12,0.0030298829078674316,0.0029520392417907715,0.003675699234008789,0.5816639026253836,-0.7645248152234939,-0.8862479323872994
17.14,0.00019550323486328125,0.0008947253227233887,0.0020560622215270996,0.5816670151542706,-0.7646847678349882,-0.8860443485969789
17.16,0.001953423023223877,0.0020006299018859863,0.002491474151611328,0.581712401875943,-0.7647186658011005,-0.8859657355963735
17.18,0.002703845500946045,0.0029637813568115234,0.002018153667449951,0.5817510992077172,-0.7647982604956028,-0.8858917162095247
17.2,0.0033420324325561523,0.002808690071105957,0.00018274784088134766,0.5818393928593001,-0.7648243134649237,-0.8858082499211616
17.22,0.0008366107940673828,0.00334775447845459,0.0030530691146850586,0.581881832792684,-0.7648714546338834,-0.8858073707238889
17.24,0.0008194446563720703,0.0005816221237182617,0.0027715563774108887,0.5818949578044809,-0.7649271477184697,-0.8859071089891083
17.26,0.0018344521522521973,0.003522038459777832,0.000996232032775879,0.5818895807975559,-0.7648609519840895,-0.8860368944278564
17.28,0.004746615886688232,0.0010341405868530273,0.001465439796447754,0.5818339541314872,-0.7647208740699046,-0.8860881512886358
17.3,0.004607141017913818,0.0024860501289367676,0.0012077093124389648,0.5818001433783714,-0.7648731001035245,-0.8859430826398912
17.32,0.0015549063682556152,0.0025138258934020996,0.001585543155670166,0.5818151457211137,-0.765185544001345,-0.8857132194047956
17.34,0.00321197509765625,0.0018402934074401855,0.0032776594161987305,0.5817943214719006,-0.7654662007928783,-0.8855163376181746
17.36,0.0011434555053710938,0.0008018016815185547,0.0038442611694335938,0.5818663373730592,-0.7656242116861807,-0.8854369996778381
17.38,0.004456937313079834,0.0039476752281188965,0.0017502307891845703,0.581905924383971,-0.7655770749480316,-0.8854148171982983
17.4,0.002255856990814209,0.002474665641784668,0.00269472599029541,0.5819326988991502,-0.7655876986145704,-0.8853997952633978
17.42,-4.8100948333740234e-05,0.002653956413269043,0.002717316150665283,0.5819645779945117,-0.7656586313748331,-0.8855207728858318
17.44,0.0007377266883850098,0.0035898685455322266,0.0025683045387268066,0.5819525107829255,-0.7657397630376711,-0.8857301010017065
17.46,0.0009849071502685547,0.001489102840423584,0.002377033233642578,0.5819402198160846,-0.7657623557944814,-0.8860103912635572
17.48,0.00322115421295166,0.001964390277862549,0.0006316900253295898,0.5819611959305521,-0.7659162641307349,-0.8860996927198755
17.5,0.0049724578857421875,0.00101548433303833,0.0017705559730529785,0.5819395188831091,-0.7661250282426885,-0.8859641679610738
17.52,0.003357827663421631,0.0022780299186706543,0.001803755760192871,0.5819347910025491,-0.766202670245496,-0.8857360636957367
17.54,0.0029755830764770508,0.0024923086166381836,0.0018599629402160645,0.5818990055223261,-0.7660773776885965,-0.8855612961652435
17.56,0.002279818058013916,0.0008097290992736816,0.0009263157844543457,0.5819488903439842,-0.7659164291148991,-0.8853988705141549
17.58,0.00209730863571167,0.001713395118713379,0.0019927024841308594,0.5820443570791153,-0.7657750883329209,-0.885252355900833
17.6,0.0006382465362548828,0.004326820373535156,0.0032986998558044434,0.5821222802794075,-0.765732571709692,-0.8852139461053699
17.62,0.0010932087898254395,0.002450406551361084,0.003319859504699707,0.5821411261128463,-0.7658412537629908,-0.8852804406536104
17.64,0.0007965564727783203,0.0032060742378234863,0.0021979808807373047,0.5822054728916372,-0.7660481540996024,-0.8853460816247442
17.66,0.0005897283554077148,0.0007481575012207031,0.00290679931640625,0.582295388909967,-0.7663700018087432,-0.8854128361561736
17.68,0.002484142780303955,0.002115190029144287,0.0007578134536743164,0.5823060392129915,-0.7669640229842273,-0.8853989172451616
17.7,0.0024486184120178223,0.0035673975944519043,0.0006819367408752441,0.5823274575928382,-0.7675277264576272,-0.8853670001828481
17.72,0.004625976085662842,0.0018745064735412598,0.0014064311981201172,0.5823649954635625,-0.7683311342158634,-0.8851651048733991
17.74,0.0074964165687561035,0.002433180809020996,0.00342404842376709,0.5824310885081715,-0.768884657630676,-0.8849065205854425
17.76,0.005260646343231201,0.0021271109580993652,0.004354298114776611,0.5824483659906697,-0.7691365689948718,-0.8846663250269758
17.78,0.00041157007217407227,0.0029438138008117676,0.0017688274383544922,0.5824394702311511,-0.7693905850564612,-0.8843753691680534
17.8,0.0027657151222229004,0.0037547945976257324,0.0020995736122131348,0.5824605042215619,-0.7694110799593924,-0.8842695522850204
17.82,0.0009981989860534668,0.002106785774230957,0.004219114780426025,0.582515253231522,-0.7692975823827672,-0.884252109480442
17.84,0.0028324127197265625,0.0022006630897521973,0.0019571781158447266,0.5825911891379955,-0.769173321371262,-0.8841612599210973
17.86,0.0021983981132507324,0.003012359142303467,0.0026167631149291992,0.5825581594940381,-0.7691635643823076,-0.8840233196348647
17.88,0.003106534481048584,0.002149522304534912,0.0020964741706848145,0.5825481294136294,-0.7690941123348362,-0.8839489193772889
17.9,0.0006369352340698242,0.0011620521545410156,0.0030664801597595215,0.5824985256224299,-0.7692443226883035,-0.8838275874778845
17.92,0.0016056299209594727,0.0019478201866149902,0.0028100013732910156,0.5825077010096952,-0.7693642531142912,-0.8838193852672269
17.94,0.0012608766555786133,0.0021151304244995117,0.0052607059478759766,0.5824522292444422,-0.7695172539369602,-0.88384335371458
17.96,0.0003051161766052246,0.0019995570182800293,0.002251267433166504,0.5824782934996157,-0.7698992973290718,-0.883849454753984
17.98,0.0011159181594848633,0.002788841724395752,0.002828657627105713,0.5824914377263938,-0.7704457779617221,-0.8838664667754796
18,0.002530515193939209,0.002575397491455078,0.004526078701019287,0.582509990343965,-0.7712398260277438,-0.8838095845062314
18.02,0.002762317657470703,0.003848731517791748,0.005204439163208008,0.5825913295100937,-0.7719851088561659,-0.8836920581454804
18.04,0.0037343502044677734,0.0019240975379943848,0.0027323365211486816,0.5826070803133037,-0.7724723122908465,-0.8835446482837087
18.06,0.0016407370567321777,0.001914381980895996,0.0003921389579772949,0.5826685488227429,-0.7730425210500712,-0.8832088031713946
18.08,0.0027357935905456543,0.0004641413688659668,0.0009624361991882324,0.5828139887441645,-0.7736408940358268,-0.8828328246018724
18.1,0.0009077191352844238,0.001857757568359375,0.0036047697067260742,0.582838397938708,-0.7743260016349677,-0.8825083245996131
18.12,0.0015919208526611328,0.003745138645172119,0.00300443172454834,0.5828327659480194,-0.7745739333691072,-0.882410177790937
18.14,0.00215303897857666,0.0016237497329711914,0.003478109836578369,0.5827957126359533,-0.7744931934681338,-0.8824282547958675
18.16,0.003469526767730713,0.002592027187347412,0.0013126730918884277,0.5827857094133436,-0.7743148171019648,-0.8823836148425851
18.18,0.003027796745300293,0.004048824310302734,0.002168715000152588,0.5827395933098373,-0.774081864095679,-0.8822837320762466
18.2,0.0023387670516967773,0.005375504493713379,0.0005355477333068848,0.5827386320630665,-0.773821846036708,-0.8821748058946363
18.22,0.002429664134979248,0.0022281408309936523,0.0033315420150756836,0.5827702874913707,-0.773611193184771,-0.8819865291519298
18.24,0.0028484463691711426,0.0031561851501464844,0.002286672592163086,0.5827852632656741,-0.7733257415510889,-0.8818868081532724
18.26,0.0010957121849060059,0.002325773239135742,0.0032320618629455566,0.582741049210752,-0.7731474298907323,-0.8817410268187543
18.28,0.000808417797088623,0.0024979114532470703,0.004090487957000732,0.5826547566490823,-0.7731728710275587,-0.8815705424059308
18.3,0.000825345516204834,0.002515077590942383,0.0019693970680236816,0.5826570373990979,-0.7734069540800871,-0.8813080368279829
18.32,0.002637624740600586,0.0023003220558166504,0.0015162229537963867,0.5826191998794411,-0.7735554808961491,-0.8810743158237646
18.34,0.0017223954200744629,0.003199458122253418,0.0031815171241760254,0.5826178545146263,-0.7736573395994122,-0.880765337782553
18.36,0.0027334094047546387,0.0012999176979064941,0.00229722261428833,0.5825906376837007,-0.7735697997667726,-0.8805044651428547
18.38,0.0019512176513671875,0.0041806697845458984,0.002157926559448242,0.5824954376241637,-0.7732974962982713,-0.8803021572656735
18.4,0.0013756752014160156,0.0036055445671081543,0.0029520392417907715,0.5825011637647629,-0.7728999631811785,-0.8801503875127111
18.42,0.0015559792518615723,0.003197968006134033,0.0029918551445007324,0.5824698354564454,-0.772721997072889,-0.8799035510221519
18.44,0.0032200217247009277,0.0016213059425354004,0.0025686025619506836,0.582500371794462,-0.7725899131217209,-0.8797556819752909
18.46,-0.0006200671195983887,0.0026001930236816406,0.0035495758056640625,0.5824483422018425,-0.7725650280192021,-0.8797639553049657
18.48,-0.001150369644165039,0.0034042000770568848,0.0026475191116333008,0.5824061535281375,-0.7725442726150235,-0.879997187508582
18.5,0.0007092952728271484,0.004118204116821289,0.0036701560020446777,0.5823475593253976,-0.7724524566667815,-0.8805126661097338
18.52,0.002702057361602783,0.001466512680053711,0.004488825798034668,0.5822602801643054,-0.7722587018177851,-0.8811864286335476
18.54,0.0023366212844848633,0.001977682113647461,0.0025933384895324707,0.5821414605952271,-0.7720307750253119,-0.8817837925577245
18.56,0.003399491310119629,0.0014319419860839844,0.0005222558975219727,0.5819813954412117,-0.7718175438146643,-0.8821527842770772
18.58,0.003094196319580078,0.0012893080711364746,0.000916898250579834,0.5819019685207878,-0.771639096521894,-0.8822752741123674
18.6,0.005149543285369873,0.000941932201385498,0.0018018484115600586,0.5819062323689088,-0.7715576785973409,-0.8821500875676445
18.62,0.0017600059509277344,0.0018772482872009277,0.0010542869567871094,0.5819481015162081,-0.7715555042216807,-0.8819844700441964
18.64,0.00269472599029541,0.0012409687042236328,0.0032721757888793945,0.5819537320550179,-0.771463824033746,-0.8818147010360433
18.66,0.001734316349029541,0.0012177228927612305,0.0017214417457580566,0.581944088990356,-0.7714081909573777,-0.8816136825559928
18.68,0.0005289316177368164,0.0029730796813964844,0.002168416976928711,0.5820544142728007,-0.7713259453421579,-0.8815673153013757
18.7,0.004144608974456787,0.0038451552391052246,0.0012894868850708008,0.5819841855975684,-0.771127097640003,-0.8816032720946674
18.72,-7.152557373046875e-07,0.0019049644470214844,0.002615511417388916,0.5820178552209531,-0.771080657173262,-0.8816291434237368
18.74,0.0020428895950317383,0.0009736418724060059,0.0038270950317382812,0.5820720635357881,-0.7711645630444691,-0.8816066873619852
18.76,0.0014153122901916504,0.00322037935256958,0.0033653974533081055,0.5820034201787374,-0.7712701131506866,-0.8816248061087586
18.78,0.001368105411529541,0.0030153989791870117,0.0028150081634521484,0.5819406608242541,-0.7709474877406771,-0.881950031144038
18.8,0.0011721253395080566,0.003322601318359375,0.0036698579788208008,0.5818700136509105,-0.770575288654069,-0.8822928764774471
18.82,0.0007706880569458008,0.0004902482032775879,0.002250850200653076,0.5819134421705175,-0.770493324863381,-0.8825246443804156
18.84,0.0025221705436706543,0.0006128549575805664,6.276369094848633e-05,0.5819324096158179,-0.7708055427380847,-0.882616376659796
18.86,0.0029407143592834473,0.003960907459259033,0.000769197940826416,0.5819034761501546,-0.7710271033341775,-0.8827471057762476
18.88,0.002756774425506592,0.003894984722137451,0.0033913254737854004,0.581788090789292,-0.7709520123722312,-0.8829516833628109
18.9,0.0027138590812683105,0.0007295012474060059,0.0015465617179870605,0.5817614688921275,-0.7708888152900121,-0.8830260090876088
18.92,0.0018517374992370605,0.0006932616233825684,0.0042915940284729,0.5817912487638182,-0.770818824633807,-0.8829624793490267
18.94,0.002765357494354248,0.0024716854095458984,0.0006533265113830566,0.5817830631883304,-0.7708358057086098,-0.8827946224961063
18.96,0.0027734041213989258,0.002496659755706787,0.0010453462600708008,0.5817580468130685,-0.7707822862718069,-0.8827921648164773
18.98,0.0017811059951782227,0.004434049129486084,0.0015208721160888672,0.581812317742003,-0.7706888768881444,-0.8829048050846611
19,0.0024355053901672363,0.002415299415588379,0.003214895725250244,0.5819346533738974,-0.7708151300765606,-0.8829094776311674
19.02,0.002007424831390381,0.0022268295288085938,0.004308164119720459,0.58200135179784,-0.7708053637838497,-0.8829906164715943
19.04,0.0011487007141113281,0.0017559528350830078,0.0036681294441223145,0.5819857041202808,-0.7707882851705827,-0.8830773367973653
19.06,0.0019741058349609375,0.0016239285469055176,0.0026604533195495605,0.5818459068514481,-0.7707267996567847,-0.8831402295474972
19.08,0.001759171485900879,0.0015264153480529785,0.0023648738861083984,0.5818752619697607,-0.7707689669564445,-0.8831302734429207
19.1,0.00346982479095459,0.001736760139465332,0.0013312101364135742,0.5818896260067735,-0.7708573134762636,-0.8830646136459813
19.12,0.0028543472290039062,0.0020425915718078613,0.0020189285278320312,0.5818538948683001,-0.7707749359766302,-0.8830451354082194
19.14,0.004230856895446777,0.002845287322998047,0.001971602439880371,0.581846622090648,-0.7705465267280049,-0.883022776457249
19.16,0.003927350044250488,0.003529787063598633,0.002039313316345215,0.5818076032576925,-0.7701681102934389,-0.8830671372847798
19.18,0.00240170955657959,0.003579258918762207,0.0023946166038513184,0.5818119367716301,-0.7697642205821438,-0.8831778297666092
19.2,0.0027591586112976074,0.0019841790199279785,0.0017819404602050781,0.5818751647212473,-0.7693577045904304,-0.8831424853144159
19.22,0.004168093204498291,0.002466440200805664,0.003668665885925293,0.5818680808310674,-0.7690566274338332,-0.8830693455117514
19.24,-0.0009736418724060059,0.002755403518676758,0.003379344940185547,0.5818487005027803,-0.7691213332657969,-0.8830338270150145
19.26,0.0033985376358032227,0.002494215965270996,0.0022596120834350586,0.5818100160832654,-0.769262750927392,-0.8830336482726352
19.28,0.003028571605682373,0.0011330842971801758,0.0021643638610839844,0.5818245573061763,-0.7694692677397593,-0.8828959027406841
19.3,0.0028443336486816406,0.0008299350738525391,0.0036013126373291016,0.581881774489176,-0.7694783252595455,-0.8826768742291637
19.32,0.001971900463104248,0.001478433609008789,0.0026085972785949707,0.5818726165698507,-0.7697223147349852,-0.8821948017182929
19.34,0.003657042980194092,0.00113677978515625,0.0022296905517578125,0.5818837764294023,-0.7698678154636402,-0.8816274322915357
19.36,0.003265976905822754,0.002916693687438965,0.002282381057739258,0.582005214538446,-0.7698784229811616,-0.8809831391167291
19.38,0.0048902034759521484,0.0026117563247680664,0.0018790960311889648,0.5820968113223013,-0.7696175581752418,-0.8803467003361494
19.4,0.0013971924781799316,0.0027527809143066406,0.0006335973739624023,0.5821194684574291,-0.7693034567965739,-0.8797837593082721
19.42,0.0045569539070129395,0.0040961503982543945,0.002681910991668701,0.5820837189018242,-0.7689012433334487,-0.8794550032333827
19.44,0.0009885430335998535,0.002499997615814209,0.0013484358787536621,0.581981306935588,-0.7685346346510038,-0.8794178950727312
19.46,-0.00027811527252197266,0.005030572414398193,0.0016932487487792969,0.5819236596806331,-0.7682689863357121,-0.8796403597494782
19.48,-0.00046324729919433594,0.003693222999572754,0.0019710659980773926,0.5818388108920443,-0.7680847983054608,-0.8800251164336312
19.5,-0.00018972158432006836,0.002959609031677246,0.0030964016914367676,0.5817460618487551,-0.7680493594512569,-0.8805958705311211
19.52,-6.592273712158203e-05,0.003527343273162842,0.0036337971687316895,0.5816037943184756,-0.7681141842373078,-0.8813799083649494
19.54,0.0003542900085449219,0.0032625198364257812,0.003466784954071045,0.5813599158615204,-0.7682523591192996,-0.8822483710671098
19.56,-0.0016616582870483398,0.0015630125999450684,0.004838228225708008,0.5811521606271817,-0.7683967360308837,-0.8831326813608514
19.58,0.0031902194023132324,0.0011162161827087402,0.0029454827308654785,0.5810009283576201,-0.7685793696178419,-0.883874199004041
19.6,0.00538325309753418,-0.00021660327911376953,0.0006051063537597656,0.5808850842902435,-0.7689305488143678,-0.88422282917238
19.62,0.004674851894378662,0.0026253461837768555,0.00023186206817626953,0.5808896664099136,-0.7692020301103167,-0.884219136938304
19.64,0.003826141357421875,6.604194641113281e-05,0.0008672475814819336,0.5808946833937297,-0.769417973478973,-0.8839492009521663
19.66,0.004752159118652344,0.0015546679496765137,0.001345992088317871,0.5810143615677495,-0.769536957725134,-0.8835001621601892
19.68,0.0023737549781799316,0.002701282501220703,0.0021628737449645996,0.5811995224688994,-0.7696072407036366,-0.8830602637475731
19.7,0.0010944604873657227,0.002280592918395996,0.002072155475616455,0.5813169023341529,-0.76976228213411,-0.8825633664248929
19.72,0.0015063881874084473,0.0028083324432373047,0.0034350156784057617,0.5814919677738283,-0.7699501203268166,-0.8820667199887614
19.74,0.002263188362121582,0.00302731990814209,0.0028212666511535645,0.5816262399598301,-0.7701272408750796,-0.8817041892144567
19.76,0.0005561709403991699,0.0035983920097351074,0.00185316801071167,0.5816157711339092,-0.7702509408258755,-0.8815818429771325
19.78,0.0005332231521606445,0.0036292672157287598,0.002184450626373291,0.581597866438288,-0.7705066824217811,-0.8816493195652749
19.8,0.0027745962142944336,0.004110753536224365,0.002180635929107666,0.5815714811797144,-0.7707669768255189,-0.881895667329975
19.82,0.0021262764930725098,0.0019445419311523438,0.0010426640510559082,0.5815173282101609,-0.7709236584602095,-0.8822506694992224
19.84,0.0027909278869628906,0.001660764217376709,0.002995908260345459,0.5814516369930408,-0.7711250396758592,-0.8825840609481056
19.86,0.0005837082862854004,-0.00016760826110839844,0.00149458646774292,0.5813818172974262,-0.7714967579598719,-0.8828587738297128
19.88,0.004535555839538574,0.001972198486328125,0.0036272406578063965,0.5813313941934745,-0.7716679857490023,-0.8830860636331084
19.9,0.0036541223526000977,0.0005332827568054199,0.0031239986419677734,0.5813258825544312,-0.7716449945937441,-0.8832097726423082
19.92,0.0027210116386413574,0.003327310085296631,0.002588987350463867,0.581327870797909,-0.7715405063183715,-0.8832718152274671
19.94,0.0009136199951171875,0.0021582841873168945,0.0018464326858520508,0.5813897246207999,-0.7715685218772225,-0.8832690546553338
19.96,0.0014889240264892578,0.0019474029541015625,0.0027734041213989258,0.5815025443817264,-0.7717605648216019,-0.8831465391352231
19.98,0.002437889575958252,0.0017500519752502441,0.0021764039993286133,0.5816497801298424,-0.7722928517926643,-0.8825099879816833
20,0.001566469669342041,0.001988649368286133,0.0019127726554870605,0.581661513452353,-0.7725015436542569,-0.8821769419002866
20.02,0.003244757652282715,0.0041585564613342285,0.004065513610839844,0.5817017770132427,-0.7726291180943546,-0.8819936970559153
20.04,0.0015361905097961426,0.0015363097190856934,0.002931535243988037,0.5816861319689437,-0.7725433261441935,-0.8820397842035191
20.06,0.0016538500785827637,0.0028964877128601074,0.0023354291915893555,0.5816705221289906,-0.7723985269541389,-0.8821774114432108
20.08,0.0023037195205688477,0.0021454691886901855,0.0012270212173461914,0.58162999526127,-0.7722856017382355,-0.8823533885119865
20.1,0.002221405506134033,0.0022287368774414062,0.0018761157989501953,0.5815469878801353,-0.7721967592562039,-0.8825854470532659
20.12,0.001674950122833252,0.0019704103469848633,0.0026925206184387207,0.5815117947520454,-0.7721025964145903,-0.8828597172243097
20.14,0.00011157989501953125,0.0021398067474365234,0.0011969804763793945,0.5814224097422742,-0.7720847276973131,-0.8830998680080143
20.16,0.0027226805686950684,0.0012714862823486328,0.002928435802459717,0.5813510157165613,-0.7720421115297803,-0.8833539159663781
20.18,0.002493441104888916,0.002954244613647461,0.0018988847732543945,0.5812831799268859,-0.7721000969360906,-0.8835094822576772
20.2,0.0030922293663024902,0.003666222095489502,0.002938568592071533,0.5812769144533454,-0.7721531700750404,-0.8836307063944213
20.22,0.0030922293663024902,0.003666222095489502,0.002938568592071533,0.5812769144533454,-0.7721531700750404,-0.8836307063944213
20.24,0.0025789737701416016,0.0018447637557983398,0.0019023418426513672,0.581270209981473,-0.7722600906865853,-0.8836956278412722
20.26,0.003468334674835205,0.0018884539604187012,0.003942251205444336,0.5812494199341076,-0.7721775573825458,-0.8836565946612975
20.28,0.004347860813140869,0.001789391040802002,0.0029903650283813477,0.5812221731702352,-0.7720490303143998,-0.8835472416518212
20.3,0.0007343292236328125,0.0019936561584472656,0.002429485321044922,0.5812109844787344,-0.7719192544026521,-0.883420636754579
20.32,0.0007492303848266602,0.001712799072265625,0.002159297466278076,0.5812218293796532,-0.7717472577820258,-0.8832935174645421
20.34,0.001981198787689209,0.001668095588684082,0.0037920475006103516,0.5812230932510772,-0.7715630603632261,-0.883191295719588
20.36,0.0020575523376464844,0.002698659896850586,0.0027753114700317383,0.5812694838809237,-0.7713126391629971,-0.8831345517618631
20.38,-3.427267074584961e-05,0.0014327764511108398,0.0016304850578308105,0.5812700978608968,-0.7712343597080953,-0.8829719118650359
20.4,0.0009554028511047363,0.0018698573112487793,0.004169166088104248,0.5812453668533439,-0.7712150250611842,-0.8827953477334004
20.42,0.0020708441734313965,0.0028061866760253906,0.003005385398864746,0.5812885228758505,-0.7712452052629301,-0.8826546719499164
20.44,0.0010057687759399414,0.0035359859466552734,0.0028043389320373535,0.5812489275652097,-0.7712504651561976,-0.8827156513466875
20.46,0.0020799636840820312,0.0029901862144470215,0.00250399112701416,0.58123485754944,-0.7712516030223218,-0.8828461891325841
20.48,0.003524482250213623,0.0019176006317138672,0.0027276277542114258,0.5812295007748584,-0.7712905394002709,-0.8829570141382024
20.5,0.0022818446159362793,0.0023200511932373047,0.001960277557373047,0.5811633333089655,-0.7712117512316751,-0.8830974618105801
20.52,0.002462327480316162,0.0025130510330200195,0.0030777454376220703,0.5811021678833189,-0.7711683975950561,-0.883161072008397
20.54,0.0017124414443969727,0.0011588335037231445,0.0025262832641601562,0.581106695340684,-0.7711166203393249,-0.8831907572987773
20.56,0.0019112229347229004,0.0013226866722106934,0.003795146942138672,0.5811201605670707,-0.7709986337002994,-0.8832660988288963
20.58,0.0030606985092163086,0.002520143985748291,0.0017659664154052734,0.5810923858167123,-0.7709384382878044,-0.8832699881585446
20.6,0.0014365911483764648,0.001977086067199707,0.0016533732414245605,0.5810268871050108,-0.7708092310281061,-0.8833015498012307
20.62,0.0013784170150756836,0.0015797615051269531,0.001712203025817871,0.581062609790314,-0.7706840765356342,-0.8833415132063351
20.64,0.0019284486770629883,0.0023918747901916504,0.0016474127769470215,0.5810849067948196,-0.770623125473082,-0.8833285468255978
20.66,0.000796973705291748,0.0018778443336486816,0.0024840235710144043,0.5810906369341845,-0.7705974753390825,-0.8832634891091935
20.68,0.003406703472137451,0.0018516182899475098,0.00035899877548217773,0.5810957854582646,-0.7706270938698483,-0.883216922919843
20.7,0.0037254691123962402,0.0013652443885803223,0.0015805363655090332,0.5810798016384131,-0.7707412893566017,-0.8831607969508606
20.72,0.0029200315475463867,0.0024695396423339844,0.0010284185409545898,0.5811231517238972,-0.7709526375682733,-0.8830410455092235
20.74,0.002730846405029297,0.002222001552581787,0.0023557543754577637,0.5811555937023875,-0.7711667667066748,-0.882871884019109
20.76,0.0014026165008544922,0.002915501594543457,0.0018658041954040527,0.5812002409092484,-0.7712704324749988,-0.8827878714054203
20.78,0.0018247365951538086,0.0010020732879638672,0.0009955167770385742,0.5812477888368739,-0.7713177636309658,-0.8827019182118955
20.8,0.004050195217132568,0.0026534199714660645,0.0033746957778930664,0.5812335723141083,-0.7713556565962639,-0.8826015602106735
20.82,0.0027227401733398438,0.0027793049812316895,0.003264307975769043,0.5812381322797673,-0.7713587056857553,-0.8825407467883463
20.84,0.0012360811233520508,0.0025300979614257812,0.003376901149749756,0.5811590884463679,-0.771297376041592,-0.8825325258640019
20.86,0.0016385912895202637,0.0018326640129089355,0.0038996338844299316,0.581146167523338,-0.7712731722938946,-0.8825330893686406
20.88,0.0018951892852783203,0.002510964870452881,0.0037235617637634277,0.5810995913211936,-0.7711878408112073,-0.8825530445271215
20.9,0.00024336576461791992,0.002234339714050293,0.0009562969207763672,0.5811337589602242,-0.7713050667936838,-0.8825877354731646
20.92,0.001473069190979004,0.002678513526916504,0.0024871230125427246,0.5811175877038289,-0.7713860853468439,-0.882616525147528
20.94,0.001519918441772461,-9.953975677490234e-06,0.001444697380065918,0.5811870947387633,-0.7716615407909547,-0.8824513691931062
20.96,0.00305783748626709,0.0028628110885620117,0.0022183656692504883,0.5813015297175443,-0.7719586031924679,-0.8823049366794815
20.98,0.0033675432205200195,0.0019519329071044922,0.0008745193481445312,0.5813436224131028,-0.7723244698229195,-0.8821547407218554
21,0.0006847977638244629,0.0012952685356140137,0.0037163496017456055,0.5813429522869478,-0.7727110939865699,-0.8820411146224768
21.02,0.0003291964530944824,0.0026025772094726562,0.002179861068725586,0.5813918280503492,-0.7732192414878035,-0.8820327787672724
21.04,0.0012352466583251953,0.0034569501876831055,0.0012535452842712402,0.5813917260207903,-0.7739434546201996,-0.8821558857765166
21.06,-0.0007767081260681152,0.0008072853088378906,0.0021854043006896973,0.5813615974291749,-0.7747450924903877,-0.8823498085142643
21.08,0.010801255702972412,0.004673361778259277,0.003803431987762451,0.5811674344746862,-0.7746656125733219,-0.8826535982939506
21.1,0.0054152607917785645,0.0018708109855651855,0.00019931793212890625,0.5809909747355269,-0.7744760809777562,-0.8828764598029448
21.12,0.0033407211303710938,0.00104600191116333,0.0018993020057678223,0.5808804313879619,-0.7742785243172524,-0.8828920613168754
21.14,0.0028052330017089844,-0.0013507604598999023,0.001990079879760742,0.5808425627572154,-0.7742008341244869,-0.8825138605514663
21.16,0.0038152337074279785,0.002728402614593506,1.5437602996826172e-05,0.5809398091737837,-0.7738852393979946,-0.8820767259243358
21.18,0.0025715231895446777,0.0031075477600097656,0.0029218196868896484,0.5810101733136945,-0.7733814479499884,-0.881695066927609
21.2,-0.0017597675323486328,0.0024526119232177734,0.0036835074424743652,0.5810846150898862,-0.7732289243637864,-0.8813097582166317
21.22,-0.0018733739852905273,-0.001208662986755371,0.003953874111175537,0.5813594014308716,-0.7734956882501515,-0.8809438386536367
21.24,0.0024079084396362305,0.0034211277961730957,0.0033768415451049805,0.5813671241411384,-0.7736686153670094,-0.8807272668278503
21.26,0.0006452798843383789,0.004397869110107422,0.0037398934364318848,0.5814037763801708,-0.7738322132929493,-0.8806729049379315
21.28,0.0019770264625549316,0.0030287504196166992,0.005319833755493164,0.5813722984586003,-0.7740743516943571,-0.8807790177278618
21.3,0.0017926692962646484,0.00341188907623291,0.0009967684745788574,0.5814838286993368,-0.7743993380950676,-0.8810680467517373
21.32,0.001465916633605957,0.003096163272857666,0.0021495819091796875,0.5815076362374275,-0.7748128371300078,-0.881505903434667
21.34,0.004041016101837158,0.0035097599029541016,0.0008680820465087891,0.5814183468747428,-0.7751071245610844,-0.8819697700278186
21.36,0.0030258893966674805,0.002667248249053955,-0.0001652240753173828,0.5813231754654112,-0.7749811505885532,-0.8824709554087997
21.38,0.007496476173400879,0.004533886909484863,0.004451632499694824,0.580398298357161,-0.7732895579084847,-0.8840689905121379
21.4,-0.013544023036956787,-0.010603904724121094,-0.006515383720397949,0.5803606012102009,-0.7727069519415668,-0.8845355406005102
21.42,0.0060882568359375,0.002573728561401367,0.011031389236450195,0.5802439173685654,-0.7723424688662189,-0.8847854001255909
21.44,0.003061056137084961,0.0013277530670166016,-3.5762786865234375e-07,0.5802866945474575,-0.7721561326292268,-0.8848466146789391
21.46,0.0018143057823181152,0.0023729801177978516,0.002412557601928711,0.5803323406873783,-0.771912654713052,-0.8847787756058517
21.48,0.0023554563522338867,0.0016765594482421875,0.002894580364227295,0.5804118734105146,-0.7720006665223608,-0.8844293919722919
21.5,0.000869452953338623,0.0009864568710327148,0.002613365650177002,0.5804442064532562,-0.7718331842601013,-0.8841213167258865
21.52,0.0016872286796569824,0.0023632049560546875,0.0035967230796813965,0.580539620234997,-0.7717310219779463,-0.8837184330667359
21.54,0.0003898143768310547,0.0030317306518554688,0.004762232303619385,0.5806091214157587,-0.77162184621636,-0.8833795999405444
21.56,0.0019585490226745605,0.0033888816833496094,0.003036022186279297,0.5806896397857187,-0.7714138470525039,-0.8832219335361491
21.58,0.0004118680953979492,0.003072977066040039,0.002229034900665283,0.5807498010875523,-0.7712393393049638,-0.8832179550152806
21.6,0.0006309747695922852,0.0025805234909057617,0.0021796226501464844,0.5807630165282831,-0.771053309645942,-0.8833960463682269
21.62,0.00373685359954834,0.003242969512939453,0.0018345117568969727,0.5806611227356281,-0.7708240711205415,-0.883647137665783
21.64,0.002042829990386963,0.0020909905433654785,0.004071593284606934,0.5805425526723665,-0.7704428235890722,-0.8840613358480367
21.66,0.001132190227508545,0.002723097801208496,0.0011557340621948242,0.5803313339413402,-0.7700115883102044,-0.8845239231915365
21.68,0.0031963586807250977,0.002111077308654785,0.000677943229675293,0.5801468821829191,-0.7696726629684171,-0.884931088161971
21.7,0.0032227039337158203,0.000751197338104248,0.0009392499923706055,0.5801264945788832,-0.7695258592857688,-0.8851964451317703
21.72,0.002811133861541748,0.001489102840423584,0.0011924505233764648,0.5801146980483366,-0.7695444087293661,-0.8851484160720482
21.74,0.0014281868934631348,0.00026720762252807617,0.0019099116325378418,0.5801316033294396,-0.769742304447643,-0.8849323027440023
21.76,0.0029318928718566895,0.0028085708618164062,0.0030115246772766113,0.5801781835379615,-0.7698366434206981,-0.884680506119384
21.78,0.002353370189666748,0.0005577206611633301,0.0016661286354064941,0.5802418067317802,-0.7699554410306935,-0.8843553391175498
21.8,0.0014883875846862793,0.0018323063850402832,0.0018134117126464844,0.5803426855325537,-0.7700274983766522,-0.8839968512826365
21.82,0.0020516514778137207,0.0017279386520385742,0.001986861228942871,0.5804185835338022,-0.7701498897979046,-0.8836287683256091
21.84,0.0017743706703186035,0.005000293254852295,0.005370914936065674,0.5804451191963267,-0.7701115869748956,-0.8834911177968885
21.86,-0.0002410411834716797,0.0027505159378051758,0.0038268566131591797,0.5804918548514355,-0.7701899183492009,-0.8835246007870342
21.88,0.0021702051162719727,0.002905547618865967,0.0025037527084350586,0.5805495453872184,-0.7704052994786394,-0.8836434651361059
21.9,0.0024504661560058594,0.0025035738945007324,0.001745462417602539,0.5805797524401731,-0.7705864851695773,-0.8836869371414998
21.92,0.003888428211212158,0.001584470272064209,0.0009322166442871094,0.5805025221860072,-0.7705941734236621,-0.8837256079747338
21.94,0.0021768808364868164,0.003891170024871826,0.0010504722595214844,0.580432566549382,-0.7706217205401291,-0.8837894656342761
21.96,0.001980900764465332,0.0030857324600219727,0.0017153024673461914,0.580381839929042,-0.7707459211256199,-0.883893925996232
21.98,0.00034695863723754883,0.0014927983283996582,0.0026746392250061035,0.5804110292779299,-0.7709913402207534,-0.8839817673033433
22,0.0027988553047180176,0.0026311874389648438,0.0015886425971984863,0.5804221636454638,-0.7710669207249408,-0.8841176401261933
22.02,0.0033205151557922363,0.0008214116096496582,0.0030417442321777344,0.5803745841068115,-0.7710667892258343,-0.8841436178638723
22.04,0.002782464027404785,0.003163635730743408,0.004366517066955566,0.5803472457272784,-0.7712208074041697,-0.8840191288130871
22.06,0.0042632222175598145,0.0008031129837036133,0.0018491148948669434,0.580389203037597,-0.7714014357841716,-0.8838231866352191
22.08,0.002587735652923584,0.001678466796875,0.0030126571655273438,0.5803593666402803,-0.7713364091054549,-0.8837242132441934
22.1,0.0010785460472106934,0.00238877534866333,0.0032791495323181152,0.5804607555807509,-0.771072586800556,-0.8836929530935635
22.12,0.003851175308227539,0.00275343656539917,0.0022587180137634277,0.5804223901320744,-0.7709642678707103,-0.8835660906836331
22.14,0.0017147064208984375,0.0034320950508117676,0.0007112026214599609,0.5804675419887636,-0.7708400190063195,-0.8834986878486263
22.16,0.002953827381134033,0.0018260478973388672,0.001718759536743164,0.5804628718088066,-0.7708423553627745,-0.8833628013561873
22.18,0.0024076104164123535,0.0018589496612548828,0.0014374852180480957,0.5804475298123596,-0.7708377811803241,-0.8832435560857365
22.2,0.0033860206604003906,0.002574443817138672,0.0011172294616699219,0.5804637712811394,-0.7708003826079455,-0.8831445306661787
22.22,0.0019698739051818848,0.0019047260284423828,0.0025136470794677734,0.5804110269894924,-0.7708224990784364,-0.8830456240665842
22.24,0.0007779598236083984,0.002536952495574951,0.0024207234382629395,0.5804554356829448,-0.7708733692900632,-0.8829783147990784
22.26,0.0009241700172424316,0.0031186342239379883,0.0026568174362182617,0.5804941526509704,-0.7708873651796133,-0.8829871756726747
22.28,0.0032772421836853027,0.0033611655235290527,0.0017212629318237305,0.5804557299120244,-0.7708427762810697,-0.8830575909933657
22.3,0.001574397087097168,0.003324151039123535,0.0015673041343688965,0.5804297302697315,-0.7708364938813658,-0.8831262638067722
22.32,0.0014154911041259766,0.0011633634567260742,0.00243222713470459,0.580363803051696,-0.7707584913247303,-0.8831963451371961
22.34,0.0014279484748840332,0.0016083121299743652,0.002810657024383545,0.580330241995023,-0.7706815942132914,-0.8832318679629557
22.36,0.002434372901916504,0.0019952058792114258,0.00160980224609375,0.5802820645588967,-0.7705227422252822,-0.8833455618500695
22.38,0.0023429393768310547,0.001646280288696289,0.002390742301940918,0.5801749420424773,-0.7703022889933198,-0.8834383612973854
22.4,0.0015167593955993652,0.0020929574966430664,0.003422677516937256,0.580161671189707,-0.7701375894564471,-0.8835200400356056
22.42,0.002987384796142578,0.002531766891479492,0.0024086833000183105,0.5801390963536325,-0.7699550060228874,-0.8835634493520762
22.44,0.002034008502960205,0.001976609230041504,0.0013928413391113281,0.5800955632431917,-0.7697373387589203,-0.8836223039184458
22.46,0.0015572905540466309,0.0024212002754211426,0.0023415684700012207,0.5801162882258158,-0.7697188414805327,-0.8835789130080123
22.48,0.0029317736625671387,0.0013026595115661621,0.000808417797088623,0.5801472264522886,-0.7698676022283896,-0.883448000063588
22.5,0.003363311290740967,0.0021287202835083008,0.0015976428985595703,0.5801498239905432,-0.7699780097870489,-0.883354632889044
22.52,0.0031661391258239746,0.0036202669143676758,0.0025457143783569336,0.5801269184514346,-0.7700162261861272,-0.8833221480860602
22.54,0.0024675726890563965,0.0025578737258911133,0.0013500452041625977,0.5801885545882369,-0.7700102003670605,-0.8833427509982528
22.56,0.0024628043174743652,0.0014681220054626465,0.0026291608810424805,0.5802173985174913,-0.7699951422532292,-0.8833796769482666
22.58,0.002941608428955078,0.002351224422454834,0.0005317330360412598,0.5801968744948675,-0.7698900438220023,-0.8834875443647925
22.6,0.0025696754455566406,0.0009254813194274902,0.0012753009796142578,0.5801888925260479,-0.7698501090840811,-0.8835359153177922
22.62,0.002542257308959961,0.0028086304664611816,0.002451956272125244,0.5801234057430209,-0.7698389685005098,-0.8835998017282827
22.64,0.0021416544914245605,0.0032486915588378906,0.0015880465507507324,0.5801386863928835,-0.7697660639306844,-0.8836756009545808
22.66,0.0021737217903137207,0.0024297237396240234,0.003102242946624756,0.5801082730834273,-0.7695969922144901,-0.8837533795124514
22.68,0.0014801025390625,0.003094017505645752,0.004090547561645508,0.580118066506685,-0.7694390963923894,-0.8838355164431876
22.7,0.0025485754013061523,0.0014636516571044922,0.0016893744468688965,0.5800843137433044,-0.7693928442253362,-0.8838899343290643
22.72,0.0018514394760131836,0.0029762983322143555,0.0009015202522277832,0.5800502532757008,-0.7693538276943206,-0.8840093438019179
22.74,0.002698540687561035,0.0033038854598999023,0.002702772617340088,0.5800587449813235,-0.7693468612628729,-0.8841418488887203
22.76,0.005050480365753174,0.0035519003868103027,0.002601027488708496,0.5800087224669387,-0.7692932383746875,-0.8842756745185825
22.78,0.0004172325134277344,0.0018253922462463379,0.0023477673530578613,0.5799694495375183,-0.7690995541190954,-0.8844396931138446
22.8,0.002321302890777588,0.00250089168548584,0.0009675025939941406,0.5799014711558356,-0.7690002367044056,-0.8845350588784743
22.82,0.002691984176635742,0.0002561807632446289,0.0031456351280212402,0.5798994725554496,-0.7689556576334207,-0.8846065003997597
22.84,0.0014349818229675293,0.002748548984527588,0.002503335475921631,0.57988738037883,-0.7688876519427639,-0.8846931384161666
22.86,0.0011606216430664062,0.0002777576446533203,0.002698659896850586,0.579852235332123,-0.7689166490056021,-0.8848733675487518
22.88,0.0026284456253051758,0.0020662546157836914,0.0011700987815856934,0.5798925590090758,-0.7689725733856227,-0.8848573913315995
22.9,0.0038706064224243164,0.002827465534210205,0.0017778873443603516,0.5799088180880863,-0.7690185528900768,-0.8847738030052404
22.92,0.0015583038330078125,0.0015797019004821777,0.0011405348777770996,0.5798764849537914,-0.7690605901186724,-0.8846635802632093
22.94,0.0029753446578979492,0.0034021735191345215,0.0015524029731750488,0.5799392365687961,-0.7690969948876982,-0.884571496747155
22.96,0.0012391209602355957,0.0025154948234558105,0.002009570598602295,0.5799372003150625,-0.7691518403474678,-0.8844782231067427
22.98,0.0037260055541992188,0.0022395849227905273,0.0020433664321899414,0.5799539461433423,-0.7691873417036539,-0.8844612162197553
23,0.0020128488540649414,0.0018883347511291504,0.0028591156005859375,0.5799900404342307,-0.769203297845932,-0.8844616524039478
23.02,0.0026273727416992188,0.0015236139297485352,0.0028946399688720703,0.5799188800408515,-0.7691905100617922,-0.8844590752288258
23.04,0.0010101795196533203,0.0028210878372192383,-0.000383913516998291,0.5799194695955943,-0.7693436839831832,-0.8843732403073911
23.06,0.0016453266143798828,0.00031191110610961914,0.00036025047302246094,0.5800026195637291,-0.7698440799430918,-0.8842043435496989
23.08,0.0060021281242370605,0.0029921531677246094,0.0009336471557617188,0.5800510037630505,-0.7703202246919586,-0.8840166219832792
23.1,0.0060021281242370605,0.0029921531677246094,0.0009336471557617188,0.5800510037630505,-0.7703202246919586,-0.8840166219832792
23.12,0.0022075772285461426,0.0031739473342895508,0.0030260682106018066,0.5799763906681946,-0.7700267173209635,-0.8843597299696929
23.14,0.00015842914581298828,0.0019936561584472656,0.0024942755699157715,0.5799335349440778,-0.7697634966090132,-0.8846725313347913
23.16,0.0033528804779052734,0.0032339096069335938,0.0021872520446777344,0.5799204685764107,-0.7694085597402359,-0.8850465755711086
23.18,0.0023186206817626953,0.0014948248863220215,0.0012943148612976074,0.579920903508904,-0.7691858471297147,-0.885405253364054
23.2,0.003167450428009033,0.002952396869659424,0.0028058290481567383,0.5798210587855991,-0.7688846833927833,-0.8857125171427153
23.22,0.0033423304557800293,0.00031620264053344727,0.0012445449829101562,0.5797706230644469,-0.7685599419150063,-0.8858750647328194
23.24,0.0017387866973876953,0.00127410888671875,0.0020323991775512695,0.5796935674997906,-0.768280619845906,-0.8858548973528061
23.26,0.0012195706367492676,0.0010055303573608398,0.001841127872467041,0.5797373656873743,-0.7680286613775152,-0.8857813697427549
23.28,-0.00034046173095703125,0.0032601356506347656,0.0030385255813598633,0.5797511113176628,-0.7679806158176359,-0.885736189390167
23.3,0.0032542943954467773,0.002943277359008789,0.004769563674926758,0.5796824666937523,-0.7676478708306191,-0.8857435123108056
23.32,0.0030251145362854004,0.0009273290634155273,0.0011935234069824219,0.5796802870870302,-0.767291183411698,-0.8856508780624395
23.34,-0.0012255311012268066,0.0028085708618164062,-0.0020461678504943848,0.5797950488939114,-0.7672478220086771,-0.8855066076951333
23.36,0.0006407499313354492,0.003660261631011963,0.002367258071899414,0.5798099236286074,-0.7674678883177852,-0.8854037736001055
23.38,0.0039001107215881348,0.0023554563522338867,0.0019426345825195312,0.5798371007373238,-0.7675763294735876,-0.8852796720181092
23.4,0.0030816197395324707,5.441904067993164e-05,0.004650592803955078,0.5798407519818558,-0.7675877811682896,-0.8851162097358022
23.42,0.002593398094177246,0.0022031068801879883,0.0021576285362243652,0.5798738007542295,-0.767811598924824,-0.8849595432816808
23.44,0.003371298313140869,0.0037375688552856445,0.003145456314086914,0.5798476502807175,-0.7680988829044458,-0.8848974925954618
23.46,0.002820312976837158,0.001864790916442871,0.0038753747940063477,0.5798524297557202,-0.7680736756424277,-0.8850376162528588
23.48,0.002791762351989746,0.002790212631225586,0.0008786320686340332,0.5799372858854294,-0.7681052707184588,-0.8851479250811065
23.5,0.004273712635040283,0.003947854042053223,0.0025728940963745117,0.5799348170253126,-0.7681321857656728,-0.8853231213935321
23.52,0.0015727877616882324,0.0028811097145080566,0.001050412654876709,0.5799546589135278,-0.7682967364116575,-0.8854944412953953
23.54,0.0032154321670532227,0.0013947486877441406,0.0011731386184692383,0.5799472416406193,-0.7685368663407339,-0.8855424212880589
23.56,0.0035002827644348145,0.0016437172889709473,0.0014957785606384277,0.5799347244862252,-0.7686727735423463,-0.8855514539172157
23.58,-0.0004030466079711914,0.002201676368713379,0.004385113716125488,0.5799632981061431,-0.7686703284713045,-0.8856601312611186
23.6,0.0026890039443969727,0.0033153295516967773,0.0032835006713867188,0.5798900248197325,-0.7684626178414085,-0.8858724173556104
23.62,0.0035770535469055176,0.0034164786338806152,0.002595245838165283,0.5799015953487038,-0.768221369802726,-0.8860697606093595
23.64,0.003861546516418457,0.00323331356048584,0.001243889331817627,0.579974382091735,-0.7680554370882584,-0.8862635288031849
23.66,0.003945827484130859,0.0029529929161071777,-0.0014734864234924316,0.5799494217951032,-0.7681796992772539,-0.8863137906867247
23.68,0.002601027488708496,0.0017271041870117188,0.0037256479263305664,0.5799614724871325,-0.7683361853695848,-0.886312910373001
23.7,0.0031093955039978027,0.0018783807754516602,0.004365086555480957,0.5799598617702922,-0.7684446595059952,-0.8862420714251585
23.72,0.0027446746826171875,0.0024381279945373535,0.0030512213706970215,0.5798994060303511,-0.7683834460471435,-0.8861661569240704
23.74,0.0002662539482116699,0.0020408034324645996,0.0037456750869750977,0.5798986897089252,-0.7684229925358909,-0.8861142761510975
23.76,0.0029151439666748047,0.0007581710815429688,0.0015193819999694824,0.5799705466845572,-0.7686865807421146,-0.8859281257298119
23.78,0.005001723766326904,0.0032300949096679688,0.0012409687042236328,0.5800435992804168,-0.7688534078301471,-0.8858147362940798
23.8,0.0029706358909606934,0.0020900964736938477,0.0009800195693969727,0.5800670784803872,-0.7688401620080808,-0.8858265595402431
23.82,0.0008364319801330566,0.0014910101890563965,0.0024213194847106934,0.5800987291230457,-0.7689904964114905,-0.8857658066681608
23.84,0.0022943615913391113,0.0028309226036071777,0.004264712333679199,0.5801500836410994,-0.7689607537168035,-0.8857754315594588
23.86,0.0008828639984130859,0.001768946647644043,0.002878129482269287,0.5801939886704234,-0.768848883738519,-0.8858268211894419
23.88,0.0013335943222045898,0.0021799802780151367,0.0034651756286621094,0.5801928249304836,-0.768811048615822,-0.8858126684587952
23.9,0.0014189481735229492,0.0014502406120300293,0.0045740604400634766,0.5802324219897317,-0.7690290101436572,-0.8856301451437353
23.92,0.0017098188400268555,0.001285254955291748,0.0015456676483154297,0.5803088239365368,-0.7694091609621351,-0.8854391512304318
23.94,0.004396915435791016,0.0025829672813415527,0.0019197463989257812,0.580364478808818,-0.7697774632133166,-0.8852472288667909
23.96,0.0011306405067443848,0.002913355827331543,0.0035501718521118164,0.5804129181614138,-0.7699846132660548,-0.8851312607086197
23.98,0.002621471881866455,0.002088785171508789,0.0022513270378112793,0.5805216098684989,-0.7700715806456635,-0.8850649268583161
24,0.0014181137084960938,0.0018402338027954102,0.0037067532539367676,0.5805711301583079,-0.7701066217057151,-0.8850162824014635
24.02,0.0009754300117492676,0.0025402307510375977,0.004316389560699463,0.5805687804722868,-0.7699522320826504,-0.8850715838218964
24.04,0.002395451068878174,0.0016829371452331543,0.004284262657165527,0.5805289886136191,-0.7699032102407898,-0.8850794877837928
24.06,0.002614915370941162,0.002637505531311035,0.0031843185424804688,0.5805209607372733,-0.7698060669584056,-0.8850638338863637
24.08,0.001175999641418457,0.0019828081130981445,0.0013524293899536133,0.5804679598523689,-0.7697646705546048,-0.8849964998695052
24.1,0.0021923184394836426,0.0023186802864074707,0.0016804337501525879,0.5804681523360202,-0.7698565115781202,-0.8848208763008746
24.12,0.0006174445152282715,0.0006684660911560059,0.001414954662322998,0.5805018609817788,-0.7699489218338524,-0.8846262042390998
24.14,0.0011439919471740723,0.0017902851104736328,0.0029000043869018555,0.5805661666172719,-0.7700280839275293,-0.8844061721267265
24.16,0.0024875402450561523,0.0034024715423583984,0.0026111602783203125,0.5805051386253055,-0.7700413058777831,-0.8842521182759822
24.18,-0.00028401613235473633,0.0024820566177368164,0.0028076171875,0.5804992790534018,-0.7699960067810147,-0.8841843284913004
24.2,0.00022083520889282227,0.002180814743041992,0.0019276738166809082,0.5804492629722883,-0.7698901404119229,-0.8841553689919558
24.22,0.003746211528778076,0.002488553524017334,-0.0006163120269775391,0.5803974934675098,-0.7696294891304996,-0.8840866043027574
24.24,0.002258121967315674,0.001578211784362793,-0.00020378828048706055,0.5804037231413227,-0.7694931845427607,-0.8839355935846832
24.26,0.002956986427307129,0.0038181543350219727,0.0011744499206542969,0.5803636113254262,-0.769564291394145,-0.8836894836823115
24.28,0.002539336681365967,0.0013185739517211914,0.003162384033203125,0.5803669676327751,-0.7696332169722845,-0.8833615476757263
24.3,0.0010257363319396973,0.0013678669929504395,0.002584517002105713,0.5804076399795031,-0.7696286693032974,-0.8830568348718599
24.32,0.002324819564819336,0.001812577247619629,0.0015604496002197266,0.5804285409369766,-0.7696961779242004,-0.8827671135082712
24.34,0.0013613104820251465,0.002904057502746582,0.0029137134552001953,0.5804200375477009,-0.7697887656259452,-0.8826386941082159
24.36,0.00039774179458618164,0.002656102180480957,0.0032425522804260254,0.5804336290004226,-0.7698699243659545,-0.8827448247045104
24.38,0.0010426640510559082,0.0038652420043945312,0.0019863247871398926,0.5804562724694945,-0.7699419051918341,-0.8829645296896466
24.4,0.0009720921516418457,0.0031342506408691406,0.002436220645904541,0.5804398375390104,-0.769966455319886,-0.883284684024114
24.42,0.002924978733062744,0.0027787089347839355,0.0019996166229248047,0.580416126325734,-0.7701034287682822,-0.8835342234106783
24.44,0.002100527286529541,0.0028617382049560547,0.004325568675994873,0.5803694011162485,-0.770123731146605,-0.8837658387115064
24.46,0.002286851406097412,0.0017795562744140625,0.0027587413787841797,0.5802796227832883,-0.7700974258220193,-0.8839816082535366
24.48,0.002128779888153076,0.0013834238052368164,0.0003342628479003906,0.5802255796427087,-0.7701048722433097,-0.8841263138116231
24.5,0.0019972920417785645,0.0027168989181518555,0.0024154186248779297,0.5802509348861049,-0.7701560859099951,-0.8842188177031556
24.52,0.0013243556022644043,0.0025614500045776367,0.001325845718383789,0.5802658441891284,-0.7703663180179506,-0.8842551871180906
24.54,0.0028645992279052734,0.0019704699516296387,0.0030363798141479492,0.5803072678072875,-0.7704928944843323,-0.884276224433173
24.56,0.0014824867248535156,0.0016846656799316406,0.0024753808975219727,0.5802938935060694,-0.7704696695493035,-0.8843136240107293
24.58,0.0005546212196350098,0.0018963813781738281,0.00263822078704834,0.5802550152120004,-0.7703735067953416,-0.8843401231975346
24.6,0.0021606087684631348,0.001944899559020996,0.0012124180793762207,0.5802583734248687,-0.7703566298539305,-0.8842568353836949
24.62,0.0016626715660095215,0.003951072692871094,0.001645505428314209,0.5803217448178177,-0.7703299597048323,-0.8841441758282292
24.64,0.0023527145385742188,0.002787292003631592,0.0031731724739074707,0.5803168054061696,-0.7704087338066388,-0.8839599874363473
24.66,0.000582277774810791,0.001690685749053955,0.0025308728218078613,0.5803192816351562,-0.7704096383177126,-0.8838724747881099
24.68,0.0014545321464538574,0.0020908117294311523,0.004036843776702881,0.5803415088387669,-0.7704024612865445,-0.8838136745098695
24.7,0.0022115111351013184,0.0043822526931762695,0.0028751492500305176,0.5802717235550824,-0.7703482977829289,-0.8837941492543832
24.72,0.0012444853782653809,0.002507448196411133,0.002420663833618164,0.5802742465001292,-0.7703147974680585,-0.8838001491007137
24.74,0.0013487935066223145,0.001303255558013916,0.0022977590560913086,0.5802392002323894,-0.7703137521071924,-0.883840079458046
24.76,0.0017015933990478516,0.0011075139045715332,0.0022464394569396973,0.5802241004482885,-0.7703072153590692,-0.8839111645042095
24.78,0.0017541050910949707,0.0023887157440185547,0.0025578737258911133,0.5801686733371897,-0.770334031700138,-0.8838995089130129
24.8,0.0029387474060058594,0.0033473968505859375,0.0010535717010498047,0.5801473234765055,-0.7703112990698283,-0.8838704014854738
24.82,0.002300441265106201,0.003215789794921875,0.0028774142265319824,0.5801723649642233,-0.7702806087829005,-0.883927251242538
24.84,0.0017557144165039062,0.0024918317794799805,0.0014622211456298828,0.5802007887617777,-0.7702809775769115,-0.8840379806351404
24.86,0.0020359158515930176,0.0021390318870544434,0.002756953239440918,0.5802167804164501,-0.7703003032698161,-0.8841309107504894
24.88,0.0013579130172729492,0.0019049644470214844,0.002079606056213379,0.5801923374193424,-0.770248348356253,-0.8842486275972761
24.9,0.005273997783660889,0.0001704692840576172,0.0027347207069396973,0.5801618128541876,-0.7702707217445164,-0.8842177497881696
24.92,0.0024257302284240723,0.002805650234222412,0.002273857593536377,0.5801381122998107,-0.7702134306430665,-0.8841386614908643
24.94,0.0023256540298461914,0.004318058490753174,0.002419114112854004,0.5801585500668952,-0.7702122032220643,-0.8840534096240863
24.96,0.0007044076919555664,0.0017061829566955566,0.0015210509300231934,0.580100572011441,-0.7701690198704311,-0.8840144506919793
24.98,0.0023928284645080566,0.0019527673721313477,0.0022318363189697266,0.5802312923001874,-0.7700653388390195,-0.8840929306498291
25,0.003086090087890625,0.0020816922187805176,0.0026172995567321777,0.5802758900567256,-0.7700284167805013,-0.8841188609698305
25.02,0.001252591609954834,0.0027973055839538574,0.0022373199462890625,0.5802376490099466,-0.7700255222345126,-0.8841324774641023
25.04,0.0018227100372314453,0.0013668537139892578,0.001661837100982666,0.5801874337091094,-0.7701044544919022,-0.8841296823866024
25.06,0.0016289949417114258,0.004385828971862793,0.003265857696533203,0.5802395159622236,-0.7701707279249731,-0.8841586549544779
25.08,0.0037497878074645996,0.0021694302558898926,0.002720355987548828,0.5802348737373598,-0.77016743145073,-0.8842160991028979
25.1,0.0029366612434387207,0.0003116130828857422,0.0024895668029785156,0.580202954586287,-0.7701398280173551,-0.8842747523500759
25.12,0.0031099915504455566,0.0019786953926086426,0.0024205446243286133,0.5802258154924526,-0.7701381538485725,-0.884346686238178
25.14,0.0024272799491882324,0.0013689398765563965,0.002337813377380371,0.5801717343701349,-0.7702119490439229,-0.8843636189194497
25.16,0.0020961761474609375,0.001254260540008545,0.003027200698852539,0.5801623977072025,-0.7702136143738055,-0.8843765788560506
25.18,0.0029654502868652344,0.0004876852035522461,0.0036734938621520996,0.5802127577750084,-0.7701177883963881,-0.8843664629081291
25.2,0.0019283890724182129,0.0020164847373962402,0.003040313720703125,0.5801614776103792,-0.7700606828976616,-0.8842897063570611
25.22,0.003005683422088623,0.0024674534797668457,0.0025492310523986816,0.5801897936493626,-0.7699414568520435,-0.8842230110483144
25.24,0.003800690174102783,0.0025191307067871094,0.0025113821029663086,0.5801968538594047,-0.7699231106969409,-0.8840921644458023
25.26,0.0013118386268615723,0.002447187900543213,0.0015662908554077148,0.5802751246916583,-0.7698684924926374,-0.884014792119715
25.28,0.0019037723541259766,0.002499818801879883,0.003133416175842285,0.5802832477109271,-0.7697921164544155,-0.8839974744886236
25.3,0.001971006393432617,0.0019636154174804688,0.002806246280670166,0.5802441929520944,-0.7697776484692676,-0.8839651682486653
25.32,0.002302408218383789,0.0032410621643066406,0.0031195878982543945,0.5802391564091031,-0.7697672000644896,-0.8839610548971334
25.34,0.00017946958541870117,0.0017902851104736328,0.003503143787384033,0.5802194378345905,-0.7697768498814948,-0.8839728129935198
25.36,0.0036859512329101562,0.002540409564971924,0.0005904436111450195,0.5802041267249813,-0.7698890824350525,-0.883936477124785
25.38,0.0017285943031311035,0.0025829672813415527,0.0009067654609680176,0.580236751489247,-0.769978976076077,-0.8839210244975282
25.4,0.0031705498695373535,0.002302885055541992,0.0017910003662109375,0.5802303331330024,-0.7700893744077549,-0.8839337709571908
25.42,0.0016869902610778809,-7.617473602294922e-05,0.002662062644958496,0.5802135615837374,-0.7700983985114204,-0.8840561404989316
25.44,0.003442525863647461,0.0009540915489196777,0.0024670958518981934,0.580186503998458,-0.7700061669116192,-0.8841593297368554
25.46,0.002828359603881836,0.0027907490730285645,0.001958489418029785,0.5801567985044007,-0.769930140962848,-0.8841842862297966
25.48,0.0018837451934814453,0.0014265179634094238,0.0020061731338500977,0.5801311692272694,-0.7698654867483964,-0.8841639915024859
25.5,0.002998054027557373,0.002866387367248535,0.0018956661224365234,0.580174255031067,-0.7698426882329212,-0.8841034055511374
25.52,0.001283884048461914,0.002606630325317383,0.0019317865371704102,0.5802103191129911,-0.7697300175043476,-0.8841034919875835
25.54,0.0013068318367004395,0.0016825199127197266,0.0022947192192077637,0.5801818335064731,-0.7695976156681117,-0.8840767844888389
25.56,0.0012018084526062012,0.0021476149559020996,0.0031197667121887207,0.5801357762557364,-0.7694696210065108,-0.8840544424323634
25.58,0.0014190673828125,0.002513706684112549,0.002028942108154297,0.580080974079649,-0.7694409422182268,-0.8840035703880511
25.6,0.001721501350402832,0.0020890235900878906,0.0030345916748046875,0.5800475988781273,-0.7694659575671625,-0.8839740940604941
25.62,0.003096938133239746,0.001009225845336914,0.0035952329635620117,0.5800518099227187,-0.7695484303828981,-0.8839215265124815
25.64,0.003591477870941162,0.0028992295265197754,0.002017676830291748,0.5800128753428346,-0.7695849620102893,-0.883867252122449
25.66,0.004644513130187988,0.0033539533615112305,0.0027235746383666992,0.5800274425900795,-0.7695944896134861,-0.88381353140089
25.68,0.0012615323066711426,0.003301084041595459,0.0012774467468261719,0.5800372058606905,-0.769608126407409,-0.883730269296895
25.7,0.0007379651069641113,0.0016012191772460938,0.0036706924438476562,0.5800664250993975,-0.7696187189150269,-0.883663815869793
25.72,0.0012742877006530762,0.0015883445739746094,0.0030559301376342773,0.580069246013914,-0.7696243555076144,-0.8836420525034901
25.74,0.0016021132469177246,0.0024424195289611816,0.00397801399230957,0.5800687663454033,-0.7695347189225541,-0.8836338967266623
25.76,0.0009930133819580078,0.002947092056274414,0.0015317201614379883,0.5800518903517994,-0.7694498005007088,-0.8836467428331601
25.78,0.0019183754920959473,0.0029885172843933105,0.0024560093879699707,0.580046536711804,-0.7694121303537528,-0.8836734856988331
25.8,0.0025263428688049316,0.001205742359161377,0.0017674565315246582,0.5800496624374747,-0.7693083910504815,-0.8836969047736543
25.82,0.0015399456024169922,0.002297043800354004,0.0024672746658325195,0.5800408557935571,-0.769134269926188,-0.8835307013357238
25.84,0.002671539783477783,0.002595841884613037,0.0014461278915405273,0.5800149569402866,-0.7690710659697391,-0.8833309657689187
25.86,0.0031957626342773438,0.001869797706604004,0.0019527673721313477,0.5800408575565806,-0.7689695969340946,-0.8831111880747128
25.88,0.00302046537399292,0.002875208854675293,0.0010020732879638672,0.580111794871119,-0.7688245212621472,-0.8828605284876793
25.9,0.002076387405395508,0.003035247325897217,0.0023840665817260742,0.58017543351323,-0.7687664528453175,-0.8825914459082762
25.92,0.0022499561309814453,0.0020551681518554688,0.0016984939575195312,0.5802260562651498,-0.7687828001232189,-0.8823352706945934
25.94,0.001689612865447998,0.003079056739807129,0.0022455453872680664,0.5802643508721874,-0.768839425073664,-0.8821693858263474
25.96,0.0011157393455505371,0.0031070709228515625,0.003159046173095703,0.5802613998410414,-0.7689236600559063,-0.882107509929559
25.98,0.0011157393455505371,0.0031070709228515625,0.003159046173095703,0.5802613998410414,-0.7689236600559063,-0.882107509929559
26,0.0028074979782104492,0.0017708539962768555,0.0007919073104858398,0.5802509293459286,-0.7690915464504081,-0.8819940910025468
26.02,0.0024941563606262207,0.0014739036560058594,0.0024123191833496094,0.5802606852273687,-0.7692110703999399,-0.8820638266245061
26.04,0.003430664539337158,0.00370103120803833,0.0028305649757385254,0.580187064723349,-0.7692501291172895,-0.8821886347272869
26.06,0.0007781982421875,0.00154036283493042,0.002076268196105957,0.5802125312463109,-0.7692705562688741,-0.8823088998521209
26.08,0.004420280456542969,0.001386880874633789,0.0014249086380004883,0.5802297498647827,-0.7691719232755915,-0.8823776696308923
26.1,0.002489626407623291,0.0010883808135986328,0.0007278919219970703,0.5802742115747642,-0.7692120698183962,-0.8822188000774767
26.12,0.0014492273330688477,0.003299534320831299,0.003323674201965332,0.580236050448521,-0.7692086497061875,-0.8820554594178509
26.14,0.0011007189750671387,0.0012649893760681152,0.0022565722465515137,0.5802116835918242,-0.7691972272052205,-0.8820342145942
26.16,0.0014124512672424316,0.0032848119735717773,0.005111753940582275,0.5802184897232319,-0.7691108421016848,-0.8821125271993223
26.18,0.002351820468902588,0.0015737414360046387,0.00041878223419189453,0.5802342304469347,-0.768957475931662,-0.8821555810308314
26.2,0.0007044672966003418,0.0018630027770996094,0.0005764961242675781,0.58026995643204,-0.7691080398719776,-0.8821815225200607
26.22,0.001826465129852295,0.0025436878204345703,0.0018296241760253906,0.5802810248585791,-0.7692809471268199,-0.882298273563413
26.24,0.002428412437438965,0.0023450255393981934,0.0018576383590698242,0.5802806411713892,-0.7694952836383575,-0.8823348142052444
26.26,0.0021021366119384766,0.0014148354530334473,0.0031606554985046387,0.5802813552462975,-0.7695368880891104,-0.8824330188978154
26.28,0.004014909267425537,0.003367900848388672,0.0026382803916931152,0.5802630169030051,-0.7696866125226981,-0.8824685734123385
26.3,0.0018591880798339844,-0.0005393028259277344,0.0035593509674072266,0.5802254061246518,-0.7698335436391132,-0.8823867887996072
26.32,0.0031568408012390137,0.002375781536102295,0.001408398151397705,0.5802262508957472,-0.7699368892314811,-0.8822434713827103
26.34,0.0014745593070983887,0.0032737255096435547,0.0009021759033203125,0.5802964381058868,-0.7700513670276301,-0.8821345653189036
26.36,0.0037848353385925293,0.0028818249702453613,0.0028246641159057617,0.5802657111544579,-0.7699150833583432,-0.8820374265164517
26.38,0.0027427077293395996,0.0015679597854614258,0.0022689104080200195,0.5803366955062723,-0.7698256172727829,-0.8818626265240863
26.4,-0.0007715821266174316,0.0029935240745544434,0.0030336380004882812,0.5803992333748451,-0.7698065201815886,-0.8818978007726594
26.42,0.0015333294868469238,0.0028043389320373535,0.0019859671592712402,0.5803919644399231,-0.7698287330764196,-0.8820776747446025
26.44,0.00027436017990112305,0.002302706241607666,0.006298661231994629,0.5804672481318213,-0.7697873773203624,-0.8822941241087634
26.46,0.0025479793548583984,0.0013272762298583984,0.0021025538444519043,0.5804869201568292,-0.7698000552680537,-0.8824834983408407
26.48,0.00263136625289917,0.00433802604675293,0.002605438232421875,0.5804014036995157,-0.7698591201666066,-0.8827100785734292
26.5,0.0037438273429870605,0.0026906728744506836,0.002675950527191162,0.5803108023123292,-0.7697992220950841,-0.882840646952689
26.52,0.004687905311584473,0.0001983642578125,0.0013505816459655762,0.5802499380617856,-0.76973186887306,-0.8827448197378115
26.54,0.003213167190551758,0.0017939209938049316,0.0015447735786437988,0.580205557696012,-0.7695855396154074,-0.8826446665944299
26.56,0.002276480197906494,0.003608405590057373,0.00305861234664917,0.5801856727868123,-0.7694360536379945,-0.8825999921084972
26.58,0.0014263391494750977,0.002879917621612549,0.004510939121246338,0.5801721641622202,-0.7692569214237045,-0.8825322979494654
26.6,0.002518594264984131,0.002094089984893799,0.0018698573112487793,0.580254248535931,-0.768993807356504,-0.8824983144723332
26.62,0.002525627613067627,0.0031602978706359863,0.002473294734954834,0.5802884812065456,-0.7687987028005878,-0.8824989372600706
26.64,-0.0004356503486633301,0.0017510056495666504,0.00366973876953125,0.5802637441150094,-0.7688573304883043,-0.8825035330282375
26.66,0.0013916492462158203,0.0030371546745300293,0.003032684326171875,0.5803054567402771,-0.7689536908122189,-0.8825631281024338
26.68,0.0022704005241394043,0.0027265548706054688,0.0030280351638793945,0.5802807417058824,-0.7689784130257559,-0.882621242790029
26.7,0.0022841691970825195,0.0028913021087646484,0.0024326443672180176,0.5802223499397668,-0.7689135273126075,-0.882680787316306
26.72,0.0033568143844604492,0.001964092254638672,0.0021227002143859863,0.580244822235236,-0.7690114444940248,-0.8826124504339792
26.74,0.0017026066780090332,0.0015575289726257324,0.0020939111709594727,0.5802330444694349,-0.7690951667094836,-0.8825627181802957
26.76,0.0023099780082702637,0.003209412097930908,0.002795577049255371,0.580237733391574,-0.769118508908403,-0.8825633740161638
26.78,0.002496957778930664,0.0033804774284362793,0.002860546112060547,0.5802051258839329,-0.7690027064426682,-0.8826306521437545
26.8,0.0014186501502990723,0.0017281770706176758,0.0035878419876098633,0.5802181499783341,-0.7687402886742001,-0.8828274258426972
26.82,0.0033582448959350586,0.0018228888511657715,0.004365384578704834,0.5801489025210353,-0.7683946726295351,-0.8830974801399519
26.84,-6.508827209472656e-05,0.001560807228088379,0.0009123086929321289,0.5800363301030039,-0.7681114420737748,-0.883384085114395
26.86,0.0024779438972473145,0.001537919044494629,0.0015009641647338867,0.5800271445778552,-0.7679448840015335,-0.883598888843508
26.88,0.0029671788215637207,0.0018582344055175781,0.0024780631065368652,0.5800452159643904,-0.7679579684901316,-0.8836464973939046
26.9,0.0009921789169311523,0.0010132193565368652,0.0028036832809448242,0.5801296361794327,-0.7681018261976293,-0.8835422031213369
26.92,0.0008007287979125977,0.0015638470649719238,0.00226747989654541,0.5801858886696307,-0.768224953644595,-0.8834494501940947
26.94,0.0020965933799743652,0.001584470272064209,0.0015033483505249023,0.580192195418313,-0.7683539800421265,-0.8833502255867172
26.96,0.001605391502380371,0.00232619047164917,0.0024827122688293457,0.580276347601549,-0.7685546500065527,-0.8832243362941247
26.98,0.0022704601287841797,0.0018297433853149414,0.002737700939178467,0.5803760328335612,-0.7688358547866392,-0.8830969029998296
27,0.00316619873046875,0.0045975446701049805,0.0013985633850097656,0.5804196986938536,-0.7689575040978184,-0.8830753730006522
27.02,0.00350266695022583,0.003092467784881592,0.0024916529655456543,0.5804445093647391,-0.7689238535735947,-0.8831730163066115
27.04,0.002314448356628418,0.0029270052909851074,0.002024829387664795,0.5803926918246396,-0.7688434242055991,-0.8832732141850463
27.06,0.001767575740814209,0.0017185211181640625,0.001900792121887207,0.5803708563508535,-0.7687828655771375,-0.8833143218901209
27.08,0.0010279417037963867,0.0011900067329406738,0.003514230251312256,0.5803044942513873,-0.7687034415808677,-0.8833482221591596
27.1,0.0031508803367614746,0.002998530864715576,0.002232074737548828,0.580259309121563,-0.7685511351393833,-0.8834389806457933
27.12,0.0038013458251953125,0.002678990364074707,0.00482553243637085,0.5802238588565197,-0.7683923338998361,-0.8835170723803075
27.14,0.0017181038856506348,0.002222001552581787,0.0034285783767700195,0.5802430556594469,-0.7683149686464003,-0.8835341372556961
27.16,0.0029791593551635742,0.0028913021087646484,0.0019279122352600098,0.5802587859543755,-0.7683921491509954,-0.8834659120530053
27.18,0.0010953545570373535,0.0018588900566101074,0.00295180082321167,0.5802649720900528,-0.7683590764512471,-0.8834514436074713
27.2,0.00486987829208374,0.0023773908615112305,0.0011659860610961914,0.5803193080362233,-0.7684281653529705,-0.8833515726584776
27.22,0.0023170113563537598,0.0031157732009887695,0.0011966228485107422,0.5803082673403749,-0.7685404151390912,-0.8832348590828784
27.24,0.001773536205291748,0.0019907355308532715,0.0012355446815490723,0.580331322330984,-0.7686153736231769,-0.8830983035378452
27.26,0.0031162500381469727,0.0018457770347595215,0.0029261112213134766,0.5803587733049418,-0.7687596296411541,-0.8829265784801761
27.28,0.002226591110229492,0.002146422863006592,0.0032106637954711914,0.5803716239366591,-0.7687601286225807,-0.882884291511381
27.3,0.003304719924926758,0.002235114574432373,0.002545773983001709,0.5803499152122472,-0.768737489313747,-0.8829058858490313
27.32,0.0009711980819702148,0.0022541284561157227,0.0035167932510375977,0.5803543873228815,-0.7686915115724394,-0.8829661416708559
27.34,0.001613616943359375,0.003169536590576172,0.0019463896751403809,0.5803908037803208,-0.7687170848306932,-0.8829294469341924
27.36,0.0023279190063476562,0.0021721720695495605,0.001055896282196045,0.5804023300500597,-0.7687450166856616,-0.8829271854493751
27.38,0.0030351877212524414,0.00162428617477417,0.0020729899406433105,0.5804223866058839,-0.7687666998537651,-0.8829100643565417
27.4,0.002557814121246338,0.003916144371032715,0.0021836161613464355,0.5804441671139662,-0.768824066749973,-0.882841636478548
27.42,0.0012205839157104492,0.0027739405632019043,0.0017161965370178223,0.5804285471371163,-0.7687725862445872,-0.8828483394083366
27.44,0.0017727017402648926,0.0017132163047790527,0.0012454986572265625,0.5804192089606101,-0.7686698739969017,-0.882861909154308
27.46,0.0013651251792907715,0.0014190077781677246,0.0030617117881774902,0.5804505699822656,-0.7685954494346607,-0.8828484400908834
27.48,0.0014725327491760254,0.0031028389930725098,-0.000759124755859375,0.5804570587760475,-0.768575212309713,-0.8828319462226147
27.5,0.0020353198051452637,0.0024990439414978027,0.003370225429534912,0.5804283334171345,-0.7686047031376646,-0.8827975335145273
27.52,0.0006337761878967285,0.0030391812324523926,5.125999450683594e-06,0.5804173851728249,-0.7686524508803202,-0.8827563140502426
27.54,0.0019128918647766113,0.001734912395477295,0.0017704963684082031,0.5804269640012846,-0.7686539924418034,-0.882733088784928
27.56,-0.00023424625396728516,0.003760814666748047,0.0016897320747375488,0.5803679725374691,-0.7686491830708713,-0.8828068344227972
27.58,0.0019844770431518555,0.001087963581085205,0.0017175674438476562,0.5803648396765928,-0.7687083364835483,-0.882809993588105
27.6,0.0034080147743225098,0.0023418664932250977,0.0010816454887390137,0.5803134196471056,-0.768708559492099,-0.8828557346979935
27.62,0.0017700791358947754,0.003059864044189453,0.0016047954559326172,0.5803143979266084,-0.7687004430870621,-0.8829237188366321
27.64,0.004080533981323242,0.002090275287628174,0.002091050148010254,0.5802314330380367,-0.7687600358453758,-0.8829305509429464
27.66,0.0022875070571899414,0.001917719841003418,0.003692150115966797,0.5802441106315737,-0.7688059068306413,-0.8829530805730872
27.68,0.0037813782691955566,0.0009350180625915527,0.0012853145599365234,0.5802185142912243,-0.7687111848672536,-0.8830265414179119
27.7,0.0031818747520446777,0.0020903348922729492,0.001656174659729004,0.5801768673620002,-0.7686265353964256,-0.8830640971045078
27.72,0.0016387104988098145,0.002580583095550537,0.0030636191368103027,0.5802338937486924,-0.7686339818337133,-0.883043068230906
27.74,0.0024645328521728516,0.0030947327613830566,0.0034207701683044434,0.5802648185397702,-0.7687074007467427,-0.8830041205574148
27.76,0.0013063549995422363,0.002442002296447754,0.0034163594245910645,0.5803054038326633,-0.7686087221967445,-0.8830432126000672
27.78,0.0022017359733581543,0.0031574368476867676,0.0030726194381713867,0.5803216068478178,-0.7685854205208225,-0.8830376316883859
27.8,0.002806544303894043,0.0022385120391845703,0.0025295019149780273,0.5802810585343691,-0.7685759215831389,-0.8829959757789919
27.82,0.0026300549507141113,0.0034576058387756348,0.0031673312187194824,0.5802973071258075,-0.768622611646577,-0.8829764493395654
27.84,0.0017594099044799805,0.0023973584175109863,0.0026866793632507324,0.5802884800810477,-0.7686154895632635,-0.8829990560239865
27.86,0.0019363760948181152,0.0021864771842956543,0.0018642544746398926,0.5802734493419752,-0.7685704608284787,-0.8829920835716816
27.88,0.0007891654968261719,0.0013697147369384766,0.002823352813720703,0.5803187123658446,-0.7685437193477423,-0.8830027981575793
27.9,0.0034447908401489258,0.0027393102645874023,0.0004458427429199219,0.5802960375209665,-0.768606505341949,-0.8829279161225888
27.92,0.0024964213371276855,0.0019491314888000488,0.0011186003684997559,0.5802999208709594,-0.7687065512174748,-0.882837716445401
27.94,0.000760197639465332,0.001974344253540039,0.002663254737854004,0.5803117657021557,-0.768744930587907,-0.8828709602783559
27.96,0.000885307788848877,0.0020618438720703125,0.0033674240112304688,0.5803069813858205,-0.7688231217862932,-0.8829319407518177
27.98,0.0025731325149536133,0.0032108426094055176,0.0018559694290161133,0.5802942387979892,-0.7687543817055128,-0.8830557628878617
28,0.002486705780029297,0.002878844738006592,0.0023043155670166016,0.5802986401533168,-0.7687150033490685,-0.8830981298874715
28.02,0.0018330216407775879,0.0008068084716796875,0.001965463161468506,0.5803024560699118,-0.7688229513987128,-0.8830783869849184
28.04,0.0010919570922851562,0.0020779967308044434,0.0034044981002807617,0.5802898038891489,-0.7689021810095205,-0.8830279690439901
28.06,0.002184629440307617,0.0011107921600341797,0.0005442500114440918,0.5802644237365606,-0.768799934191982,-0.8830235496956004
28.08,0.0032085180282592773,0.003398597240447998,0.004079878330230713,0.5802449289010142,-0.7686632499191509,-0.8830393020054643
28.1,0.0007152557373046875,0.0031511783599853516,0.0023037195205688477,0.5802593321901977,-0.7686115426498367,-0.8830000907423686
28.12,0.0012514591217041016,0.0012045502662658691,0.0027419328689575195,0.5803036040143933,-0.7686938880875543,-0.8829834234306397
28.14,0.003217637538909912,0.002206265926361084,0.0010249614715576172,0.5803154433609453,-0.7686470688541442,-0.8830416017900005
28.16,0.0012810826301574707,0.002232491970062256,0.0024343132972717285,0.5803285734956392,-0.7687336693574489,-0.8830797055281177
28.18,0.0019369721412658691,0.0011434555053710938,0.0025787949562072754,0.5803035160957563,-0.7688696520300443,-0.8830691105004498
28.2,0.002445697784423828,0.002248048782348633,0.002497553825378418,0.5803471499964179,-0.7690583617906588,-0.883033015194385
28.22,0.002539336681365967,0.002327561378479004,0.0026027560234069824,0.5803692371889417,-0.7691774457375804,-0.8830583357705464
28.24,0.0012430548667907715,0.0032015442848205566,0.0015940666198730469,0.580374230352876,-0.769334179625335,-0.8830849299235933
28.26,0.0036438703536987305,0.0011461973190307617,0.0020359158515930176,0.5804528081521375,-0.7695705751708013,-0.8830642857499897
28.28,0.002599358558654785,0.0016932487487792969,0.002568542957305908,0.5804865944651292,-0.7697075312802162,-0.8830299572193276
28.3,0.0027277469635009766,0.003105342388153076,0.002847015857696533,0.5805147329655254,-0.7697867932413744,-0.883019193015732
28.32,0.0021509528160095215,0.002613246440887451,0.003163635730743408,0.5804554226470062,-0.7697286922810436,-0.8830626425233086
28.34,0.003705620765686035,0.0029968619346618652,0.002121150493621826,0.5804396874784679,-0.7695379381390423,-0.8831053726203949
28.36,0.002183675765991211,0.0023419857025146484,0.0015500783920288086,0.5804412921858751,-0.7694693315793252,-0.883102088419153
28.38,0.003809213638305664,0.001973748207092285,0.00022792816162109375,0.5803841244264601,-0.7694464030638453,-0.8830392789883177
28.4,0.0022576451301574707,0.001264810562133789,0.00259244441986084,0.5803574063006228,-0.7693867102502732,-0.883000631578956
28.42,0.002184629440307617,0.0021674633026123047,0.004076838493347168,0.5803237958212091,-0.769218571848296,-0.8829852298397431
28.44,0.0008935928344726562,0.003250718116760254,0.0020824670791625977,0.5802871752936378,-0.7690782067669414,-0.8829821894206021
28.46,0.001610875129699707,0.0031931400299072266,0.001693129539489746,0.5802548160812699,-0.76895625574285,-0.8830038156363578
28.48,0.0015732049942016602,0.001589655876159668,0.0020700693130493164,0.5802896884181046,-0.7689665146215683,-0.8829612469674246
28.5,0.0016361474990844727,0.0011153221130371094,0.003323793411254883,0.580324619165468,-0.7690173056144796,-0.8829034728085686
28.52,0.002417266368865967,0.0022906064987182617,0.0039910078048706055,0.5802702841143007,-0.7691400469728694,-0.8828235779996249
28.54,0.0012047290802001953,0.002753615379333496,0.003909111022949219,0.5801854079099208,-0.7690235591123025,-0.8828545535457943
28.56,0.0029636621475219727,0.0013404488563537598,0.003010094165802002,0.5801376930995628,-0.7689748647718996,-0.8828747113149507
28.58,0.003427743911743164,0.0018625259399414062,0.0006363391876220703,0.5801598160568215,-0.7689486029064242,-0.8828661542801094
28.6,0.0028749704360961914,0.003478109836578369,0.0011772513389587402,0.5801758153651997,-0.7689784236915127,-0.8828089885824437
28.62,0.0018698573112487793,0.00017219781875610352,0.001978576183319092,0.5801456212212739,-0.7690641223004624,-0.8827083261498075
28.64,0.0009006857872009277,0.0011452436447143555,0.0026631951332092285,0.5801414176831946,-0.7691752822459859,-0.8826484136449068
28.66,0.001567065715789795,0.002752959728240967,0.0019629597663879395,0.5801662691328651,-0.7692080956126732,-0.8827200604880551
28.68,0.003721952438354492,0.0021873116493225098,0.003131389617919922,0.5801285647119048,-0.7691136386768114,-0.8827350357463296
28.7,0.0024140477180480957,0.00279843807220459,0.0008662939071655273,0.5801112511872125,-0.7690845602361999,-0.8826827879599967
28.72,0.0014917254447937012,0.0031107664108276367,0.0013079643249511719,0.580229242938895,-0.7694782668545965,-0.8824788687172611
28.74,0.0008447170257568359,0.00231325626373291,0.003246605396270752,0.5802791098996413,-0.7696266758455356,-0.882429107871007
28.76,0.0008447170257568359,0.00231325626373291,0.003246605396270752,0.5802791098996413,-0.7696266758455356,-0.882429107871007
28.78,0.0012611746788024902,0.0033153891563415527,0.0032643675804138184,0.5802914042540782,-0.769692748053227,-0.8826257092517309
28.8,0.003919243812561035,0.0019567012786865234,0.0013667941093444824,0.5802359313798494,-0.7697134327696602,-0.8826529244253388
28.82,0.005301833152770996,0.002906322479248047,0.0022374987602233887,0.5801854604859686,-0.769798423225914,-0.8824793412525243
28.84,0.0004876255989074707,0.0030002593994140625,0.002519369125366211,0.5801701059134112,-0.7699537187346842,-0.8823080623702899
28.86,0.00015741586685180664,0.0008466839790344238,0.0033579468727111816,0.5801675694908547,-0.7701137707732274,-0.8822197932707312
28.88,0.004222989082336426,0.003006577491760254,0.0032615065574645996,0.580141144016352,-0.7699302999623603,-0.8821516693552214
28.9,0.002960801124572754,0.003492891788482666,0.0019985437393188477,0.5801205777008702,-0.7694925152686409,-0.8821861551047468
28.92,0.0010338425636291504,0.004035472869873047,0.0026139020919799805,0.5801125347309131,-0.7692008720846808,-0.8823520054651454
28.94,0.0020322799682617188,0.0012186169624328613,0.002371668815612793,0.5801197643556982,-0.7691402095625851,-0.8824307294796492
28.96,0.00032079219818115234,0.0021042227745056152,0.0033066868782043457,0.5801569232231695,-0.7691341299881816,-0.8825007700736845
28.98,0.001040816307067871,0.0034491419792175293,0.0028095245361328125,0.5801048104377485,-0.76910592009789,-0.882566675388177
29,0.002263963222503662,0.0008878111839294434,0.0037007927894592285,0.5800161227025769,-0.7691553110476859,-0.8825336618501111
29.02,0.000512242317199707,0.003046751022338867,0.004153132438659668,0.5800250431926585,-0.7693945520066976,-0.8824956729858889
29.04,0.0047408342361450195,0.0007786750793457031,0.002763807773590088,0.5800498034794649,-0.7696674505090529,-0.882403221691514
29.06,0.0045092105865478516,0.0010805130004882812,0.0025205612182617188,0.5799546590405026,-0.7697040391912388,-0.8822232313336846
29.08,0.0038603544235229492,0.0007463693618774414,0.002534031867980957,0.5800659997134001,-0.7697105647433922,-0.8820306026802138
29.1,0.0035470128059387207,0.0019484758377075195,0.0027814507484436035,0.5801531717142776,-0.7698032345282236,-0.8818875243648646
29.12,-0.0001690387725830078,0.0017935633659362793,0.005056500434875488,0.5802233551397582,-0.769910510621242,-0.8817952301379882
29.14,0.0018614530563354492,0.0029641389846801758,0.005843222141265869,0.5803093558832572,-0.7699162414421838,-0.8817681148964791
29.16,0.003182649612426758,0.00212705135345459,0.0030585527420043945,0.580366733247732,-0.769916705914407,-0.8818080198081442
29.18,0.0026013851165771484,0.0025298595428466797,0.0009833574295043945,0.5803921747126592,-0.7700828925980926,-0.8818071374174303
29.2,0.0026270151138305664,0.003177165985107422,0.000125885009765625,0.5804729536494457,-0.7705838617864215,-0.8817021780441945
29.22,0.0035144686698913574,0.0031709671020507812,0.0008895397186279297,0.5805749337487961,-0.7709326922404545,-0.881725073255129
29.24,0.0036957263946533203,0.004298210144042969,0.002505362033843994,0.5805179773016086,-0.7708168747727341,-0.8818806139517802
29.26,0.002919495105743408,0.0010407567024230957,0.004102230072021484,0.5804179713547659,-0.7705530815342916,-0.882050483102173
29.28,0.0014782547950744629,0.003618776798248291,0.0014351606369018555,0.5803988575153091,-0.7703769945740829,-0.8822521923699996
29.3,0.0016325116157531738,0.0034137964248657227,0.0006148815155029297,0.580372641384142,-0.770388332340643,-0.8822949060272942
29.32,0.004581332206726074,0.0026350021362304688,0.0023026466369628906,0.5803537429000238,-0.77030652214838,-0.8823158972715064
29.34,0.0005336999893188477,0.001951456069946289,0.0028569698333740234,0.5804121648636492,-0.770336989676767,-0.8822217468024309
29.36,0.003129124641418457,0.0009200572967529297,0.0030592679977416992,0.580364753572373,-0.7702837307152325,-0.8820745248158415
29.38,0.0008893013000488281,0.0027776360511779785,0.0018489956855773926,0.5803052675068504,-0.7701750034243877,-0.8818664741563055
29.4,0.0026421546936035156,0.0022599101066589355,0.002682209014892578,0.5802701482921104,-0.7699207274661258,-0.8817298784341081
29.42,0.0024700164794921875,0.002341151237487793,0.0015059709548950195,0.580294318724155,-0.7698018394613739,-0.8815532488326839
29.44,0.0020270943641662598,0.003513157367706299,0.0015721917152404785,0.580345553231455,-0.7697321360381418,-0.8813838148004894
29.46,0.0012410879135131836,0.0022652149200439453,0.0032080411911010742,0.5803494689540419,-0.7696454137036195,-0.8812741551768011
29.48,0.0016404390335083008,0.002862274646759033,0.002746284008026123,0.5803700367887922,-0.7696120769475764,-0.8812515143656745
29.5,0.0007131695747375488,0.002018749713897705,0.0025772452354431152,0.5803465991471901,-0.7695775660049706,-0.8812694136800052
29.52,0.0026813745498657227,0.0036483407020568848,0.0023047327995300293,0.5803064479272576,-0.769653473536431,-0.8813007135205223
29.54,0.001979351043701172,0.0018429756164550781,0.001658618450164795,0.5803189947298509,-0.7698899043683703,-0.8814368172827696
29.56,0.001736760139465332,0.002486884593963623,0.0020218491554260254,0.5802495848054512,-0.7702041194838165,-0.8815918571131091
29.58,0.003253340721130371,0.0028309226036071777,0.0019004344940185547,0.5802048172575089,-0.7703380572294248,-0.8817499871647684
29.6,0.002734839916229248,0.0018041133880615234,0.002222299575805664,0.5801812499024982,-0.7702728126970699,-0.882050041679398
29.62,0.004368185997009277,0.0025398731231689453,0.0024857521057128906,0.5801123118722155,-0.7701029057874006,-0.882395886358325
29.64,0.0012862086296081543,0.001233816146850586,0.001365959644317627,0.5801196102948383,-0.7701080540823847,-0.8825852836479178
29.66,0.002887904644012451,0.00032258033752441406,0.003298938274383545,0.5801247561689095,-0.7700343484086521,-0.8827256389857244
29.68,0.0012646913528442383,0.001646876335144043,0.0032602548599243164,0.5801209283027119,-0.7699461127822518,-0.8827893167923135
29.7,0.002690911293029785,0.0013613700866699219,0.0035952329635620117,0.580089791762486,-0.7698111939876675,-0.8827722651521366
29.72,0.0029618144035339355,0.0011500120162963867,0.0011540651321411133,0.5800924773927031,-0.769730346234664,-0.8825805161996443
